Time,Second,AccelerationX,AccelerationY,AccelerationZ,EulerAnglesX,EulerAnglesY,EulerAnglesZ
15:40:54:904,0.000,0.022,0.035,0.017,10.472,-36.705,-7.245
15:40:54:991,0.088,0.019,0.012,-0.003,10.470,-36.720,-7.517
15:40:54:991,0.088,0.018,0.010,0.009,10.450,-36.724,-7.651
15:40:55:026,0.123,-0.004,0.011,-0.008,10.496,-36.764,-7.693
15:40:55:107,0.203,0.020,0.013,-0.001,10.519,-36.792,-7.785
15:40:55:107,0.203,0.014,0.024,0.005,10.510,-36.917,-7.921
15:40:55:107,0.203,-0.016,0.031,-0.016,10.511,-36.952,-7.910
15:40:55:141,0.237,-0.002,0.027,-0.013,10.505,-36.781,-7.977
15:40:55:141,0.237,0.010,0.011,0.005,10.494,-36.834,-8.053
15:40:55:215,0.312,0.005,0.021,-0.003,10.487,-37.258,-8.143
15:40:55:318,0.414,-0.017,-0.019,-0.003,10.404,-37.248,-8.121
15:40:55:32,0.416,0.023,0.022,0.011,10.363,-37.371,-8.261
15:40:55:32,0.416,-0.008,0.011,-0.007,10.382,-37.378,-8.246
15:40:55:39,0.486,0.005,0.037,0.006,10.407,-37.362,-8.481
15:40:55:391,0.487,0.010,0.028,-0.001,10.424,-37.273,-8.462
15:40:55:468,0.565,0.016,0.009,0.005,10.482,-37.041,-8.330
15:40:55:469,0.566,0.030,0.007,0.014,10.458,-36.991,-8.368
15:40:55:476,0.573,0.029,-0.004,0.019,10.454,-36.970,-8.312
15:40:55:513,0.610,0.027,-0.015,0.023,10.473,-37.018,-8.339
15:40:55:524,0.621,0.029,-0.024,0.005,10.530,-37.179,-8.451
15:40:55:669,0.765,-0.015,0.004,-0.013,10.745,-37.526,-8.630
15:40:55:67,0.766,-0.010,0.047,-0.013,10.953,-37.608,-8.631
15:40:55:67,0.766,-0.047,0.078,-0.024,11.152,-37.651,-8.565
15:40:55:754,0.850,-0.039,0.113,-0.023,11.281,-37.514,-8.364
15:40:55:754,0.850,-0.042,0.069,-0.025,11.272,-37.429,-8.233
15:40:55:774,0.871,-0.029,0.040,0.004,11.140,-37.276,-8.170
15:40:55:815,0.912,0.002,0.020,-0.014,11.019,-37.133,-8.141
15:40:55:815,0.912,0.021,0.002,-0.009,10.845,-36.923,-8.145
15:40:56:056,1.153,-0.011,0.034,-0.011,10.740,-36.766,-8.165
15:40:56:056,1.153,-0.009,0.064,-0.001,10.874,-36.765,-8.026
15:40:56:366,1.463,0.004,-0.015,-0.004,10.284,-36.932,-7.993
15:40:56:443,1.539,-0.012,-0.025,-0.014,10.339,-36.981,-7.929
15:40:56:444,1.540,-0.009,-0.002,-0.008,10.379,-37.054,-7.936
15:40:56:445,1.541,-0.009,0.018,0.002,10.392,-37.093,-7.938
15:40:56:678,1.774,0.008,-0.017,-0.003,10.380,-36.955,-7.778
15:40:56:678,1.774,0.012,-0.029,-0.003,10.348,-36.938,-7.788
15:40:56:739,1.835,0.037,-0.061,0.023,10.353,-36.897,-7.822
15:40:56:753,1.849,0.040,-0.103,0.029,10.459,-36.937,-7.957
15:40:56:754,1.850,0.047,-0.060,0.020,10.612,-37.030,-8.108
15:40:56:803,1.900,0.012,0.035,0.010,10.989,-37.274,-8.221
15:40:56:803,1.900,-0.030,0.086,-0.030,11.256,-37.459,-8.187
15:40:56:825,1.922,-0.048,0.111,-0.033,11.502,-37.669,-8.098
15:40:56:85,1.947,-0.064,0.137,-0.047,11.597,-37.764,-8.003
15:40:56:9,1.996,-0.037,0.138,-0.029,11.557,-37.708,-7.894
15:40:56:925,2.021,-0.022,0.058,-0.014,11.455,-37.557,-7.759
15:40:56:975,2.071,0.002,0.033,0.009,11.164,-37.265,-7.735
15:40:56:989,2.085,0.040,-0.039,0.022,10.825,-37.075,-7.876
15:40:57:041,2.137,0.054,-0.073,0.025,10.596,-37.008,-7.924
15:40:57:042,2.138,0.053,-0.185,0.028,10.231,-36.896,-7.854
15:40:57:063,2.159,0.032,-0.177,0.014,10.089,-36.829,-7.835
15:40:57:116,2.213,0.008,-0.020,-0.007,10.397,-36.896,-7.777
15:40:57:137,2.234,-0.001,0.019,-0.004,10.699,-37.044,-7.705
15:40:57:19,2.286,-0.011,0.087,-0.012,10.848,-37.202,-7.789
15:40:57:191,2.287,-0.035,0.102,-0.019,10.908,-37.272,-7.759
15:40:57:278,2.374,-0.044,0.080,-0.016,10.959,-37.386,-7.679
15:40:57:278,2.374,-0.038,0.074,-0.025,10.955,-37.255,-7.515
15:40:57:288,2.384,0.007,0.019,-0.010,10.797,-37.108,-7.459
15:40:57:353,2.449,0.021,-0.001,0.019,10.665,-36.988,-7.437
15:40:57:354,2.450,0.021,-0.033,0.008,10.559,-36.847,-7.385
15:40:57:387,2.484,0.029,-0.043,0.009,10.537,-36.782,-7.363
15:40:57:425,2.522,-0.003,-0.047,-0.005,10.546,-36.683,-7.252
15:40:57:438,2.535,0.031,0.027,0.009,10.631,-36.606,-7.228
15:40:57:449,2.546,0.013,0.048,0.013,10.760,-36.521,-7.085
15:40:57:515,2.611,0.010,0.025,0.004,10.925,-36.392,-6.927
15:40:57:516,2.612,0.046,0.049,0.031,10.945,-36.352,-7.010
15:40:57:525,2.621,0.035,0.034,0.023,10.923,-36.275,-6.943
15:40:57:606,2.703,0.028,0.034,0.033,10.883,-36.344,-6.996
15:40:57:607,2.704,0.005,0.011,-0.003,10.794,-36.414,-6.960
15:40:57:662,2.759,0.002,-0.008,-0.006,10.647,-36.558,-7.059
15:40:57:745,2.841,-0.006,-0.007,-0.003,10.632,-36.644,-7.027
15:40:57:745,2.841,0.017,-0.012,-0.007,10.604,-36.762,-7.126
15:40:57:745,2.841,0.009,-0.006,-0.008,10.605,-36.914,-7.158
15:40:57:762,2.859,0.005,-0.007,-0.006,10.599,-36.955,-7.124
15:40:57:903,2.999,-0.007,0.025,-0.009,10.729,-37.254,-7.231
15:40:57:903,2.999,-0.003,0.023,-0.003,10.762,-37.297,-7.262
15:40:57:975,3.071,-0.016,0.010,-0.013,10.759,-37.498,-7.395
15:40:58:,3.097,0.001,0.039,-0.010,10.751,-37.495,-7.443
15:40:58:065,3.161,0.007,-0.006,-0.008,10.750,-37.480,-7.449
15:40:58:066,3.162,0.017,0.023,0.005,10.732,-37.495,-7.599
15:40:58:115,3.212,-0.005,0.038,0.015,10.758,-37.489,-7.637
15:40:58:115,3.212,-0.004,0.022,0.001,10.795,-37.476,-7.640
15:40:58:125,3.222,0.007,0.046,0.010,10.823,-37.522,-7.759
15:40:58:218,3.314,-0.019,0.031,-0.009,10.833,-37.525,-7.703
15:40:58:219,3.315,-0.008,0.047,-0.016,10.846,-37.564,-7.778
15:40:58:22,3.316,-0.002,0.019,-0.002,10.853,-37.601,-7.844
15:40:58:365,3.461,0.006,-0.009,-0.020,10.753,-37.851,-7.706
15:40:58:366,3.462,0.014,0.037,0.006,10.688,-37.952,-7.732
15:40:58:425,3.521,0.014,-0.026,0.008,10.726,-38.168,-7.755
15:40:58:438,3.534,0.027,0.019,0.013,10.778,-38.200,-7.733
15:40:58:518,3.615,0.005,0.023,-0.005,10.840,-38.178,-7.612
15:40:58:518,3.615,0.001,0.011,-0.003,10.954,-38.166,-7.473
15:40:58:519,3.616,-0.002,0.010,-0.011,11.009,-38.177,-7.464
15:40:58:577,3.674,-0.001,0.025,-0.003,11.046,-38.182,-7.419
15:40:58:578,3.675,-0.001,0.037,-0.022,11.041,-38.166,-7.341
15:40:58:6,3.697,-0.001,0.023,-0.004,11.058,-38.170,-7.311
15:40:58:681,3.777,-0.012,0.003,-0.015,11.058,-38.153,-7.220
15:40:58:682,3.778,0.012,0.000,0.009,11.020,-38.118,-7.203
15:40:58:682,3.778,0.008,0.035,-0.003,11.002,-38.040,-7.195
15:40:58:725,3.821,0.014,-0.014,0.001,11.030,-37.983,-7.183
15:40:58:75,3.846,0.019,-0.016,-0.021,11.018,-38.052,-7.283
15:40:58:775,3.871,0.011,0.028,0.003,11.031,-38.175,-7.420
15:40:58:814,3.911,-0.028,0.017,-0.010,11.104,-38.195,-7.352
15:40:58:824,3.921,0.020,0.023,0.001,11.188,-38.242,-7.439
15:40:58:849,3.946,-0.002,0.037,0.003,11.226,-38.291,-7.502
15:40:58:902,3.999,-0.017,0.033,-0.005,11.264,-38.351,-7.471
15:40:58:903,4.000,0.000,0.045,0.007,11.306,-38.435,-7.570
15:40:58:966,4.062,-0.039,0.067,-0.034,11.312,-38.565,-7.469
15:40:58:988,4.084,-0.031,0.036,-0.019,11.241,-38.500,-7.414
15:40:59:216,4.312,-0.010,-0.001,-0.007,10.861,-38.081,-7.209
15:40:59:291,4.387,0.001,-0.009,-0.003,10.878,-38.115,-7.293
15:40:59:291,4.387,0.026,0.052,0.004,10.896,-38.128,-7.397
15:40:59:301,4.397,0.005,0.038,0.001,10.929,-38.083,-7.300
15:40:59:366,4.463,-0.006,0.008,0.005,10.934,-37.992,-7.084
15:40:59:366,4.463,0.025,0.038,0.011,10.840,-38.051,-7.346
15:40:59:374,4.471,0.019,0.030,0.019,10.760,-38.145,-7.654
15:40:59:516,4.612,0.032,-0.008,0.018,10.609,-38.297,-7.891
15:40:59:525,4.621,0.007,0.004,-0.015,10.714,-38.245,-7.856
15:40:59:592,4.688,0.017,0.046,0.006,10.880,-38.241,-7.877
15:40:59:625,4.721,-0.001,0.061,-0.006,10.945,-38.178,-7.848
15:40:59:687,4.784,-0.009,0.057,0.000,11.028,-38.030,-7.653
15:40:59:753,4.850,-0.008,0.031,-0.008,10.976,-37.898,-7.524
15:40:59:754,4.851,0.042,0.063,0.020,10.931,-37.846,-7.575
15:40:59:763,4.860,0.024,0.047,0.025,10.892,-37.701,-7.501
15:40:59:814,4.910,0.019,-0.024,0.015,10.779,-37.549,-7.304
15:40:59:825,4.921,0.043,-0.020,0.014,10.638,-37.581,-7.436
15:40:59:837,4.933,0.017,-0.029,0.007,10.463,-37.723,-7.613
15:40:59:977,5.074,0.003,-0.022,-0.001,10.396,-37.894,-7.734
15:40:59:978,5.075,0.036,0.022,0.021,10.473,-37.929,-7.912
15:41:00:144,5.241,-0.004,0.036,-0.005,11.077,-38.201,-7.949
15:41:00:149,5.246,0.010,0.044,0.014,11.174,-38.140,-8.101
15:41:00:203,5.300,-0.018,0.024,-0.017,11.175,-38.001,-7.996
15:41:00:203,5.300,0.022,-0.003,-0.006,11.065,-37.796,-7.867
15:41:00:369,5.465,0.018,0.027,-0.003,10.815,-37.864,-7.699
15:41:00:37,5.466,-0.020,0.028,-0.023,10.804,-37.966,-7.678
15:41:00:428,5.525,-0.019,0.012,-0.023,10.731,-38.261,-7.849
15:41:00:437,5.534,-0.010,0.004,-0.018,10.705,-38.289,-7.806
15:41:00:462,5.559,0.015,0.000,-0.003,10.664,-38.322,-7.862
15:41:00:515,5.612,0.003,-0.009,-0.005,10.651,-38.336,-7.874
15:41:00:516,5.613,-0.012,0.012,-0.007,10.672,-38.369,-7.877
15:41:00:59,5.686,-0.020,0.022,-0.025,10.714,-38.458,-7.969
15:41:00:591,5.687,-0.011,0.030,0.000,10.702,-38.546,-8.226
15:41:00:755,5.852,0.021,0.013,-0.002,10.685,-38.598,-8.810
15:41:00:756,5.853,0.012,0.001,0.005,10.678,-38.578,-8.834
15:41:00:756,5.853,0.018,-0.041,0.002,10.664,-38.563,-8.857
15:41:00:775,5.872,0.031,-0.038,0.009,10.661,-38.578,-9.050
15:41:00:874,5.971,0.012,0.053,0.005,11.351,-38.474,-9.708
15:41:00:899,5.996,-0.023,0.129,-0.013,11.933,-38.516,-9.498
15:41:00:926,6.023,-0.057,0.246,-0.041,12.219,-38.607,-9.302
15:41:01:163,6.259,0.013,-0.123,0.000,9.701,-38.278,-8.692
15:41:01:212,6.309,0.015,-0.018,0.022,9.745,-38.456,-8.439
15:41:01:287,6.383,-0.010,0.042,0.000,10.383,-38.459,-8.059
15:41:01:351,6.447,-0.052,0.021,-0.050,10.529,-38.441,-7.843
15:41:01:378,6.474,0.011,0.058,-0.005,10.629,-38.381,-7.753
15:41:01:379,6.475,-0.003,0.080,-0.004,10.692,-38.314,-7.775
15:41:01:524,6.621,0.038,0.019,0.025,10.776,-38.025,-7.638
15:41:01:55,6.647,0.007,0.000,0.028,10.891,-38.060,-7.653
15:41:01:891,6.987,0.005,0.016,-0.004,11.007,-38.746,-8.129
15:41:01:965,7.061,0.008,0.019,0.003,11.130,-38.878,-8.248
15:41:02:012,7.109,0.008,0.041,0.011,11.201,-38.959,-8.298
15:41:02:129,7.225,0.019,0.007,0.013,11.149,-39.023,-8.265
15:41:02:204,7.300,0.011,-0.008,0.002,11.212,-39.012,-7.983
15:41:02:351,7.447,0.001,0.035,0.001,11.391,-39.180,-8.178
15:41:02:362,7.458,-0.003,0.026,0.001,11.432,-39.171,-8.192
15:41:02:401,7.497,0.000,0.007,-0.002,11.429,-39.158,-8.204
15:41:02:425,7.521,0.024,-0.009,-0.002,11.423,-39.160,-8.291
15:41:02:45,7.546,0.016,-0.026,0.008,11.466,-39.164,-8.344
15:41:02:515,7.612,0.002,0.015,0.009,11.703,-39.220,-8.355
15:41:02:515,7.612,0.025,0.040,0.007,11.779,-39.261,-8.373
15:41:02:587,7.684,-0.002,0.043,0.000,11.944,-39.427,-8.476
15:41:02:6,7.697,-0.004,0.063,-0.010,11.975,-39.495,-8.466
15:41:02:625,7.721,-0.008,0.064,-0.008,11.969,-39.543,-8.433
15:41:02:662,7.758,-0.008,0.054,0.000,11.929,-39.533,-8.395
15:41:02:675,7.771,0.000,0.055,0.001,11.839,-39.531,-8.391
15:41:02:74,7.836,0.001,0.007,0.000,11.761,-39.519,-8.354
15:41:02:741,7.837,-0.006,-0.006,-0.004,11.596,-39.521,-8.347
15:41:02:753,7.849,0.034,-0.018,0.007,11.436,-39.525,-8.393
15:41:02:813,7.910,0.028,-0.042,0.018,11.394,-39.505,-8.271
15:41:02:827,7.924,0.003,-0.083,0.004,11.420,-39.482,-7.989
15:41:02:837,7.934,0.034,-0.054,-0.006,11.481,-39.537,-7.892
15:41:02:862,7.959,0.000,-0.007,-0.006,11.664,-39.646,-7.654
15:41:02:888,7.985,0.006,0.011,-0.022,11.784,-39.795,-7.553
15:41:02:913,8.010,0.009,0.038,0.004,11.831,-39.914,-7.674
15:41:02:938,8.034,-0.006,0.046,-0.006,11.922,-40.006,-7.690
15:41:02:963,8.059,0.001,0.067,0.003,11.959,-40.009,-7.622
15:41:02:975,8.071,-0.029,0.070,-0.028,11.968,-39.822,-7.387
15:41:03:049,8.146,0.004,0.047,0.000,11.914,-39.338,-7.202
15:41:03:09,8.187,0.028,0.025,0.010,11.823,-39.131,-7.173
15:41:03:091,8.188,0.034,0.017,0.018,11.748,-39.040,-7.157
15:41:03:139,8.235,0.025,0.001,0.019,11.648,-39.032,-7.298
15:41:03:164,8.260,0.018,-0.023,0.021,11.647,-39.190,-7.495
15:41:03:2,8.296,0.016,0.016,0.007,11.614,-39.421,-7.756
15:41:03:213,8.309,0.008,0.027,0.013,11.590,-39.548,-7.837
15:41:03:274,8.371,-0.007,0.037,-0.022,11.659,-39.738,-7.797
15:41:03:287,8.384,-0.012,0.046,-0.016,11.667,-39.853,-7.874
15:41:03:362,8.458,-0.020,0.044,-0.019,11.601,-39.887,-7.794
15:41:03:403,8.499,-0.001,-0.002,-0.007,11.461,-39.863,-7.829
15:41:03:528,8.624,-0.016,-0.017,-0.024,11.172,-40.061,-8.103
15:41:03:528,8.624,-0.002,0.014,0.001,11.142,-40.142,-8.250
15:41:03:55,8.646,-0.029,0.025,-0.003,11.132,-40.124,-8.348
15:41:03:588,8.684,-0.017,0.038,-0.025,11.119,-40.050,-8.371
15:41:03:601,8.697,0.009,0.029,0.004,11.129,-39.920,-8.337
15:41:03:666,8.762,-0.018,0.022,-0.013,11.149,-39.709,-8.118
15:41:03:666,8.762,0.013,0.024,-0.012,11.101,-39.584,-8.138
15:41:03:676,8.772,0.026,0.040,0.018,11.039,-39.413,-8.184
15:41:03:752,8.849,0.006,-0.006,0.001,11.016,-39.295,-8.087
15:41:03:753,8.850,0.041,0.010,0.004,10.954,-39.207,-8.165
15:41:03:762,8.859,0.025,-0.001,0.005,10.869,-39.150,-8.202
15:41:03:788,8.885,0.017,-0.001,-0.005,10.811,-39.132,-8.171
15:41:03:867,8.963,0.019,-0.019,0.008,10.752,-39.028,-8.226
15:41:03:9,8.996,0.039,0.013,0.004,10.744,-39.021,-8.297
15:41:04:141,9.237,0.029,-0.016,0.018,10.793,-38.607,-8.288
15:41:04:15,9.246,0.035,-0.004,0.012,10.786,-38.563,-8.295
15:41:04:216,9.312,0.012,-0.001,0.009,10.816,-38.652,-8.516
15:41:04:363,9.459,0.007,0.026,-0.012,10.915,-38.961,-8.824
15:41:04:4,9.496,-0.017,0.034,-0.016,10.957,-38.996,-8.829
15:41:04:524,9.621,0.016,-0.007,0.006,10.943,-39.059,-9.141
15:41:04:55,9.647,0.023,0.020,0.019,10.938,-39.118,-9.243
15:41:04:601,9.697,0.007,0.013,0.000,10.945,-39.189,-9.210
15:41:04:628,9.724,0.004,0.002,-0.005,10.987,-39.404,-9.399
15:41:04:863,9.959,0.011,-0.003,0.010,11.027,-39.312,-9.358
15:41:04:913,10.009,0.011,0.003,-0.002,11.079,-39.352,-9.381
15:41:04:977,10.074,-0.024,-0.002,-0.028,11.058,-39.512,-9.490
15:41:04:978,10.075,-0.022,0.006,-0.030,11.095,-39.531,-9.491
15:41:05:037,10.133,-0.033,-0.009,-0.038,11.259,-39.306,-9.093
15:41:05:062,10.158,0.007,0.006,0.018,11.369,-39.182,-9.124
15:41:05:087,10.183,0.013,0.027,0.004,11.503,-39.063,-9.076
15:41:05:125,10.221,0.017,0.030,0.012,11.582,-39.014,-9.076
15:41:05:212,10.308,-0.019,0.038,-0.013,11.704,-39.090,-9.159
15:41:05:328,10.425,0.024,0.008,-0.006,11.446,-39.014,-9.212
15:41:05:401,10.498,-0.010,-0.034,-0.025,11.262,-38.966,-9.178
15:41:05:453,10.549,-0.004,-0.023,-0.004,11.296,-38.876,-9.134
15:41:05:454,10.550,-0.019,-0.006,-0.005,11.450,-38.667,-8.993
15:41:05:476,10.572,0.006,0.013,-0.006,11.556,-38.576,-9.004
15:41:05:529,10.625,0.014,0.042,0.000,11.691,-38.486,-9.070
15:41:05:529,10.625,0.000,0.041,-0.008,11.810,-38.357,-8.999
15:41:05:678,10.775,0.017,-0.005,0.005,11.686,-38.158,-9.181
15:41:05:767,10.863,0.001,-0.032,0.005,11.608,-38.208,-9.300
15:41:05:788,10.884,0.007,-0.017,0.001,11.624,-38.247,-9.362
15:41:05:84,10.936,-0.005,0.006,-0.009,11.697,-38.338,-9.429
15:41:05:841,10.937,-0.023,0.037,-0.015,11.799,-38.429,-9.455
15:41:05:888,10.984,-0.008,0.055,-0.015,11.867,-38.519,-9.586
15:41:05:912,11.009,-0.020,0.038,-0.013,11.863,-38.500,-9.553
15:41:05:938,11.035,-0.004,0.051,-0.018,11.862,-38.449,-9.494
15:41:05:988,11.085,-0.006,0.020,-0.007,11.817,-38.424,-9.519
15:41:06:,11.097,0.001,0.016,-0.006,11.746,-38.412,-9.552
15:41:06:012,11.109,0.018,0.015,0.002,11.677,-38.406,-9.747
15:41:06:1,11.196,0.015,0.014,0.008,11.602,-38.338,-9.875
15:41:06:139,11.235,0.014,-0.005,0.002,11.601,-38.365,-9.900
15:41:06:15,11.246,0.009,-0.009,0.002,11.574,-38.392,-9.909
15:41:06:175,11.271,0.001,0.026,-0.003,11.589,-38.391,-9.885
15:41:06:201,11.297,0.010,0.029,-0.002,11.682,-38.417,-9.876
15:41:06:224,11.321,-0.006,0.023,-0.012,11.718,-38.464,-9.873
15:41:06:25,11.347,-0.007,0.027,-0.002,11.670,-38.549,-9.867
15:41:06:289,11.386,-0.006,0.026,-0.008,11.614,-38.628,-9.909
15:41:06:3,11.397,-0.015,0.018,-0.013,11.616,-38.676,-9.872
15:41:06:325,11.421,-0.018,0.019,-0.018,11.625,-38.700,-9.767
15:41:06:35,11.446,0.004,0.009,-0.013,11.625,-38.667,-9.726
15:41:06:375,11.471,0.004,0.004,0.002,11.599,-38.581,-9.676
15:41:06:4,11.496,0.008,-0.011,-0.004,11.587,-38.512,-9.656
15:41:06:438,11.534,0.018,-0.009,-0.001,11.598,-38.505,-9.718
15:41:06:45,11.546,0.016,-0.024,0.001,11.649,-38.499,-9.676
15:41:06:516,11.613,0.012,0.020,0.006,11.806,-38.474,-9.522
15:41:06:537,11.634,0.013,0.023,0.005,11.911,-38.490,-9.546
15:41:06:563,11.660,0.007,0.016,0.010,11.991,-38.541,-9.625
15:41:06:612,11.709,-0.007,0.040,0.001,11.997,-38.691,-9.699
15:41:06:637,11.733,-0.007,0.039,0.000,12.011,-38.810,-9.734
15:41:06:663,11.759,-0.012,0.016,-0.014,11.966,-38.866,-9.747
15:41:06:688,11.784,0.000,0.007,0.002,11.868,-38.948,-9.827
15:41:06:712,11.808,0.002,-0.018,0.004,11.836,-38.999,-9.918
15:41:06:738,11.834,0.009,0.001,0.002,11.862,-39.034,-9.976
15:41:06:763,11.860,-0.021,0.006,-0.025,11.933,-39.085,-9.912
15:41:06:788,11.884,-0.007,0.019,-0.010,11.962,-39.143,-9.930
15:41:06:839,11.935,0.003,0.033,0.002,11.969,-39.169,-10.069
15:41:06:849,11.946,-0.006,0.040,-0.007,12.033,-39.120,-9.975
15:41:06:902,11.999,0.007,0.037,-0.007,12.077,-39.133,-9.978
15:41:06:903,12.000,0.020,0.039,0.014,12.106,-39.130,-10.032
15:41:06:979,12.075,-0.005,-0.001,0.003,11.991,-39.191,-9.740
15:41:07:05,12.146,-0.013,0.001,-0.003,11.919,-39.266,-9.643
15:41:07:075,12.171,-0.007,0.006,-0.011,11.917,-39.293,-9.624
15:41:07:101,12.197,-0.004,0.006,-0.010,11.912,-39.291,-9.615
15:41:07:125,12.222,-0.006,0.013,-0.009,11.916,-39.269,-9.606
15:41:07:175,12.272,0.011,0.013,0.005,11.919,-39.230,-9.602
15:41:07:2,12.297,0.006,0.012,0.004,11.919,-39.195,-9.560
15:41:07:212,12.309,0.017,0.003,0.009,11.926,-39.165,-9.544
15:41:07:251,12.347,0.015,0.014,0.002,11.924,-39.168,-9.573
15:41:07:276,12.372,0.019,0.017,0.009,11.935,-39.208,-9.649
15:41:07:302,12.398,0.032,0.002,0.009,11.949,-39.252,-9.741
15:41:07:312,12.408,0.039,0.010,0.015,11.912,-39.395,-10.020
15:41:07:35,12.446,-0.001,0.004,0.009,11.890,-39.627,-10.146
15:41:07:363,12.459,0.002,0.007,-0.008,11.907,-39.785,-10.188
15:41:07:388,12.484,-0.015,0.029,-0.003,11.939,-39.975,-10.292
15:41:07:425,12.522,-0.031,0.009,-0.022,11.967,-40.037,-10.222
15:41:07:438,12.535,-0.022,0.011,-0.016,11.977,-40.127,-10.289
15:41:07:462,12.559,-0.022,0.030,-0.002,12.027,-40.178,-10.388
15:41:07:528,12.624,-0.034,0.028,-0.023,12.095,-40.138,-10.304
15:41:07:528,12.624,-0.001,0.036,-0.006,12.147,-40.066,-10.343
15:41:07:563,12.659,-0.007,0.040,-0.001,12.164,-40.008,-10.393
15:41:07:588,12.684,0.008,0.032,-0.006,12.134,-39.937,-10.335
15:41:07:613,12.709,0.010,0.006,0.005,12.046,-39.919,-10.397
15:41:07:638,12.734,0.012,-0.005,0.011,11.980,-39.915,-10.432
15:41:07:679,12.775,0.020,-0.002,0.015,11.923,-39.937,-10.488
15:41:07:679,12.775,0.006,-0.019,0.001,11.923,-39.968,-10.551
15:41:07:715,12.811,0.019,-0.013,0.002,11.910,-40.020,-10.605
15:41:07:74,12.836,0.009,-0.009,0.003,11.899,-40.125,-10.689
15:41:07:763,12.859,-0.009,0.007,-0.002,11.937,-40.191,-10.682
15:41:07:831,12.927,-0.020,0.048,-0.006,12.191,-40.325,-10.705
15:41:07:901,12.997,-0.009,0.064,-0.006,12.268,-40.326,-10.586
15:41:07:926,13.023,-0.007,0.042,-0.006,12.265,-40.300,-10.507
15:41:07:949,13.046,0.000,0.039,-0.011,12.240,-40.293,-10.490
15:41:08:05,13.146,0.005,0.004,0.009,11.951,-40.360,-10.703
15:41:08:063,13.159,-0.004,-0.017,-0.001,11.943,-40.399,-10.720
15:41:08:1,13.196,0.003,-0.010,-0.006,11.916,-40.457,-10.792
15:41:08:258,13.355,0.001,0.014,-0.017,11.997,-40.622,-10.889
15:41:08:258,13.355,-0.017,0.000,-0.011,12.038,-40.636,-10.832
15:41:08:258,13.355,-0.015,-0.010,-0.010,12.084,-40.663,-10.808
15:41:08:288,13.385,0.007,-0.004,-0.011,12.122,-40.736,-10.981
15:41:08:3,13.397,-0.021,0.020,-0.006,12.173,-40.757,-11.032
15:41:08:325,13.421,-0.013,0.003,-0.008,12.298,-40.736,-11.031
15:41:08:364,13.460,0.012,0.030,-0.001,12.401,-40.696,-11.190
15:41:08:375,13.471,-0.008,0.023,-0.003,12.481,-40.643,-11.168
15:41:08:399,13.496,-0.006,0.038,-0.008,12.603,-40.569,-11.114
15:41:08:437,13.534,0.009,0.058,0.007,12.658,-40.533,-11.188
15:41:08:45,13.547,-0.018,0.049,0.001,12.744,-40.445,-11.156
15:41:08:487,13.583,0.005,0.043,-0.006,12.774,-40.386,-11.144
15:41:08:563,13.659,0.013,0.015,0.002,12.675,-40.297,-11.132
15:41:08:613,13.709,-0.004,0.008,0.004,12.521,-40.288,-11.110
15:41:08:875,13.972,-0.017,0.007,-0.017,12.310,-40.729,-11.020
15:41:08:9,13.997,-0.008,0.024,-0.015,12.322,-40.749,-11.050
15:41:08:925,14.022,-0.017,0.031,-0.002,12.364,-40.706,-11.022
15:41:08:951,14.048,0.002,0.025,-0.007,12.374,-40.658,-11.049
15:41:08:976,14.072,0.008,0.005,0.000,12.381,-40.606,-11.104
15:41:09:001,14.097,0.007,0.019,0.005,12.387,-40.594,-11.133
15:41:09:026,14.122,0.001,0.014,0.006,12.347,-40.589,-11.185
15:41:09:063,14.159,0.007,0.013,-0.002,12.310,-40.595,-11.253
15:41:09:075,14.171,0.000,-0.008,-0.002,12.306,-40.613,-11.284
15:41:09:125,14.221,0.007,-0.002,0.002,12.284,-40.669,-11.387
15:41:09:212,14.309,0.000,0.013,0.004,12.411,-40.703,-11.394
15:41:09:25,14.347,0.007,0.016,0.006,12.431,-40.735,-11.444
15:41:09:363,14.459,-0.018,0.017,-0.014,12.712,-41.096,-11.437
15:41:09:44,14.537,-0.018,0.043,-0.015,12.799,-41.263,-11.405
15:41:09:441,14.538,-0.039,0.034,-0.028,12.800,-41.251,-11.219
15:41:09:588,14.684,0.001,0.009,-0.001,12.577,-40.936,-11.016
15:41:09:6,14.696,0.007,0.002,0.001,12.535,-40.898,-10.987
15:41:09:637,14.733,0.003,-0.010,0.001,12.472,-40.868,-10.996
15:41:09:675,14.771,0.005,-0.001,-0.003,12.429,-40.861,-11.053
15:41:09:75,14.847,0.010,0.008,0.004,12.440,-40.848,-11.115
15:41:09:787,14.884,0.006,0.011,-0.002,12.464,-40.866,-11.111
15:41:09:8,14.897,0.005,0.027,-0.001,12.513,-40.896,-11.119
15:41:10:063,15.159,0.002,0.004,-0.007,12.305,-40.918,-11.208
15:41:10:1,15.197,-0.010,0.011,-0.011,12.300,-40.912,-11.175
15:41:10:14,15.237,-0.005,-0.019,-0.011,12.300,-40.875,-11.163
15:41:10:141,15.238,-0.005,-0.007,-0.003,12.285,-40.838,-11.189
15:41:10:251,15.347,0.004,0.015,0.000,12.419,-40.532,-11.122
15:41:10:303,15.400,0.019,0.026,-0.001,12.494,-40.434,-11.166
15:41:10:338,15.435,0.005,0.015,-0.004,12.561,-40.404,-11.156
15:41:10:363,15.460,0.005,0.023,-0.001,12.580,-40.365,-11.128
15:41:10:375,15.471,0.008,0.019,-0.001,12.594,-40.316,-11.141
15:41:10:414,15.510,0.013,0.010,0.015,12.609,-40.307,-11.168
15:41:10:453,15.549,0.012,0.005,0.015,12.642,-40.288,-11.162
15:41:10:453,15.549,0.012,0.027,-0.003,12.658,-40.287,-11.138
15:41:10:512,15.609,0.005,0.020,0.004,12.676,-40.312,-11.127
15:41:10:688,15.784,0.004,0.007,0.001,12.759,-40.351,-11.126
15:41:10:75,15.846,-0.001,0.003,0.000,12.780,-40.398,-11.170
15:41:10:762,15.859,0.004,0.014,0.006,12.840,-40.421,-11.218
15:41:10:789,15.886,-0.001,0.020,-0.011,12.886,-40.441,-11.215
15:41:10:825,15.922,-0.004,0.016,0.000,12.921,-40.492,-11.265
15:41:10:88,15.976,0.008,0.013,0.002,12.915,-40.512,-11.303
15:41:10:88,15.976,0.001,-0.020,0.005,12.910,-40.561,-11.286
15:41:10:9,15.996,-0.007,-0.034,0.004,12.946,-40.671,-11.345
15:41:10:926,16.022,-0.003,-0.054,-0.005,12.992,-40.745,-11.402
15:41:10:951,16.047,-0.011,-0.004,-0.011,13.159,-40.812,-11.445
15:41:10:988,16.084,-0.003,0.030,-0.013,13.336,-40.806,-11.428
15:41:11:,16.096,-0.014,0.034,-0.019,13.583,-40.730,-11.346
15:41:11:075,16.172,-0.010,0.051,-0.008,13.798,-39.977,-11.290
15:41:11:151,16.248,0.016,0.022,0.009,13.645,-39.618,-11.084
15:41:11:187,16.283,0.027,0.008,0.018,13.533,-39.563,-11.109
15:41:11:202,16.298,0.018,0.011,0.015,13.449,-39.561,-11.130
15:41:11:25,16.346,0.001,-0.008,-0.007,13.399,-39.593,-11.139
15:41:11:343,16.439,-0.004,-0.010,-0.003,13.257,-39.643,-11.212
15:41:11:35,16.446,-0.012,0.007,-0.003,13.260,-39.740,-11.257
15:41:11:387,16.484,-0.011,0.024,-0.020,13.291,-39.963,-11.265
15:41:11:412,16.509,-0.020,0.043,-0.022,13.295,-39.982,-11.225
15:41:11:437,16.534,-0.020,0.042,-0.021,13.280,-39.928,-11.137
15:41:11:463,16.560,-0.005,0.034,-0.011,13.212,-39.761,-11.088
15:41:11:488,16.584,0.009,0.029,0.003,13.164,-39.662,-11.064
15:41:11:513,16.609,0.015,-0.015,0.020,13.079,-39.485,-11.051
15:41:11:563,16.659,0.030,-0.003,0.030,13.030,-39.462,-11.090
15:41:11:589,16.685,0.034,-0.030,0.027,13.008,-39.443,-11.138
15:41:11:6,16.696,0.018,-0.045,0.027,13.007,-39.474,-11.156
15:41:11:639,16.735,0.037,-0.060,0.026,13.022,-39.713,-11.285
15:41:11:65,16.746,0.001,-0.024,0.010,13.147,-40.204,-11.307
15:41:11:675,16.772,-0.013,-0.019,-0.004,13.287,-40.338,-11.260
15:41:11:725,16.822,-0.011,0.037,-0.018,13.605,-40.559,-11.381
15:41:11:8,16.897,-0.001,0.092,-0.023,14.007,-40.704,-11.427
15:41:11:825,16.922,0.003,0.092,-0.017,13.981,-40.760,-11.522
15:41:11:862,16.959,0.001,0.083,-0.022,13.877,-40.801,-11.548
15:41:11:9,16.996,-0.016,0.037,-0.019,13.666,-40.926,-11.578
15:41:11:925,17.021,-0.017,0.007,-0.006,13.422,-41.311,-11.663
15:41:11:95,17.046,-0.021,-0.020,0.000,13.262,-41.321,-11.677
15:41:11:987,17.084,-0.010,-0.026,-0.002,13.009,-41.584,-11.665
15:41:12:05,17.147,0.009,-0.013,-0.012,12.885,-41.520,-11.653
15:41:12:076,17.172,0.001,-0.008,0.001,12.817,-41.697,-11.639
15:41:12:101,17.197,-0.008,-0.018,-0.007,12.819,-41.606,-11.515
15:41:12:113,17.209,0.013,0.000,0.003,12.849,-41.537,-11.598
15:41:12:175,17.272,0.008,-0.003,0.006,12.910,-41.296,-11.482
15:41:12:187,17.284,0.014,0.019,0.012,12.941,-41.233,-11.492
15:41:12:212,17.309,0.010,-0.007,0.004,12.998,-41.185,-11.469
15:41:12:251,17.348,0.010,0.001,0.009,13.014,-41.191,-11.491
15:41:12:276,17.372,0.016,-0.002,0.013,13.055,-41.243,-11.499
15:41:12:312,17.408,-0.001,0.003,0.007,13.103,-41.236,-11.449
15:41:12:338,17.434,0.006,0.006,0.006,13.209,-41.243,-11.453
15:41:12:488,17.584,0.004,0.005,-0.001,13.584,-41.267,-11.369
15:41:12:513,17.609,0.005,-0.003,-0.009,13.560,-41.139,-11.326
15:41:12:527,17.623,0.010,0.007,0.001,13.586,-41.167,-11.354
15:41:12:563,17.659,-0.004,0.012,-0.013,13.628,-41.181,-11.298
15:41:12:587,17.684,0.020,0.011,0.003,13.645,-41.164,-11.272
15:41:12:64,17.737,0.026,0.005,0.006,13.638,-41.160,-11.247
15:41:12:641,17.738,0.009,0.006,0.015,13.674,-41.196,-11.251
15:41:12:719,17.815,-0.011,0.018,-0.007,13.749,-41.232,-11.322
15:41:12:719,17.815,-0.012,0.040,-0.016,13.744,-41.266,-11.355
15:41:12:738,17.834,-0.002,0.035,0.005,13.756,-41.287,-11.385
15:41:12:763,17.859,-0.006,0.030,-0.005,13.816,-41.239,-11.304
15:41:12:788,17.884,0.032,0.028,0.008,13.809,-41.223,-11.306
15:41:12:825,17.921,0.028,0.019,0.010,13.757,-41.195,-11.327
15:41:12:95,18.047,-0.009,0.030,-0.011,13.598,-41.930,-11.586
15:41:13:025,18.121,-0.030,0.034,-0.034,13.569,-42.406,-11.410
15:41:13:079,18.175,-0.055,0.043,-0.047,13.589,-42.485,-11.363
15:41:13:079,18.175,-0.052,0.017,-0.049,13.580,-42.475,-11.209
15:41:13:1,18.196,-0.017,0.043,-0.017,13.516,-42.329,-11.147
15:41:13:155,18.251,-0.009,0.014,-0.007,13.502,-42.185,-11.053
15:41:13:155,18.251,-0.004,-0.016,-0.012,13.477,-41.967,-10.840
15:41:13:187,18.284,0.019,-0.023,0.003,13.413,-41.872,-10.860
15:41:13:25,18.347,-0.001,-0.017,-0.002,13.413,-41.726,-10.839
15:41:13:262,18.359,0.008,-0.014,-0.006,13.449,-41.692,-10.847
15:41:13:401,18.497,-0.010,0.035,-0.015,13.741,-41.675,-10.971
15:41:13:413,18.509,-0.014,0.052,-0.013,13.779,-41.669,-10.978
15:41:13:438,18.534,-0.005,0.029,-0.012,13.778,-41.624,-10.940
15:41:13:525,18.622,0.010,0.013,0.000,13.754,-41.407,-10.928
15:41:13:537,18.634,0.011,0.003,0.010,13.776,-41.321,-10.879
15:41:13:575,18.672,0.024,0.011,0.005,13.791,-41.286,-10.931
15:41:13:712,18.809,0.001,0.011,-0.006,13.928,-41.413,-11.055
15:41:13:725,18.822,0.004,0.000,-0.005,13.933,-41.466,-11.102
15:41:13:8,18.896,-0.002,0.019,-0.013,14.043,-41.552,-11.016
15:41:13:825,18.921,-0.002,0.014,-0.003,14.073,-41.571,-11.015
15:41:13:85,18.947,-0.011,0.024,-0.011,14.117,-41.579,-10.974
15:41:13:938,19.035,-0.014,0.002,-0.011,14.220,-41.580,-10.991
15:41:13:963,19.059,-0.004,0.025,-0.006,14.237,-41.549,-11.015
15:41:14:012,19.108,0.006,0.017,-0.001,14.304,-41.381,-10.999
15:41:14:112,19.209,0.015,0.010,0.015,14.393,-41.258,-11.147
15:41:14:325,19.421,0.001,0.013,-0.005,14.439,-41.606,-11.145
15:41:14:375,19.472,0.004,-0.001,-0.004,14.386,-41.637,-11.204
15:41:14:5,19.597,-0.011,0.016,-0.008,14.361,-41.695,-11.315
15:41:14:537,19.634,-0.008,0.015,-0.009,14.404,-41.700,-11.303
15:41:14:604,19.700,-0.010,0.045,-0.010,14.487,-41.668,-11.270
15:41:14:637,19.733,-0.003,0.026,-0.012,14.483,-41.651,-11.258
15:41:14:862,19.958,0.002,0.012,-0.009,14.496,-41.430,-11.184
15:41:14:887,19.983,0.019,0.011,0.016,14.534,-41.399,-11.193
15:41:14:912,20.008,-0.001,0.016,0.002,14.568,-41.397,-11.206
15:41:15:,20.096,-0.012,0.038,-0.021,14.668,-41.514,-11.122
15:41:15:049,20.146,-0.013,0.024,-0.013,14.600,-41.475,-11.030
15:41:15:175,20.271,0.028,-0.008,0.015,14.445,-41.032,-11.049
15:41:15:238,20.334,0.020,-0.011,0.019,14.453,-40.935,-11.089
15:41:15:25,20.346,0.022,-0.002,0.019,14.480,-40.923,-11.194
15:41:15:3,20.396,0.021,-0.017,0.017,14.506,-40.941,-11.280
15:41:15:325,20.421,0.020,0.009,0.013,14.560,-40.994,-11.368
15:41:15:338,20.434,0.012,0.009,0.006,14.609,-41.031,-11.378
15:41:15:466,20.562,-0.019,0.051,-0.021,14.847,-41.441,-11.556
15:41:15:487,20.583,-0.018,0.023,-0.007,14.783,-41.470,-11.462
15:41:15:55,20.646,0.002,-0.009,-0.002,14.666,-41.445,-11.465
15:41:15:563,20.659,0.014,-0.039,0.014,14.628,-41.401,-11.422
15:41:15:701,20.797,-0.019,0.051,-0.016,15.225,-41.923,-11.438
15:41:15:726,20.822,-0.026,0.052,-0.027,15.357,-42.029,-11.403
15:41:15:75,20.847,-0.028,0.084,-0.021,15.547,-42.156,-11.416
15:41:15:801,20.897,-0.003,0.070,-0.012,15.758,-42.174,-11.367
15:41:15:826,20.922,-0.010,0.107,-0.010,15.752,-42.139,-11.300
15:41:15:85,20.946,0.006,0.094,0.000,15.716,-42.122,-11.335
15:41:15:9,20.997,0.001,0.042,-0.014,15.410,-42.095,-11.301
15:41:15:937,21.034,-0.007,0.014,-0.001,15.155,-42.113,-11.317
15:41:15:962,21.059,-0.002,-0.003,0.006,14.920,-42.112,-11.345
15:41:15:987,21.084,-0.003,-0.019,-0.006,14.761,-42.113,-11.335
15:41:16:012,21.109,-0.007,-0.018,-0.007,14.561,-42.112,-11.280
15:41:16:037,21.133,0.008,-0.024,0.009,14.450,-42.112,-11.334
15:41:16:062,21.158,0.009,-0.028,0.006,14.322,-42.127,-11.458
15:41:16:088,21.184,-0.012,-0.019,-0.005,14.269,-42.149,-11.403
15:41:16:113,21.210,-0.006,0.001,-0.009,14.261,-42.166,-11.425
15:41:16:15,21.246,-0.001,0.000,0.000,14.263,-42.176,-11.487
15:41:16:163,21.259,-0.004,-0.019,-0.004,14.271,-42.168,-11.467
15:41:16:188,21.284,0.006,0.023,-0.012,14.285,-42.153,-11.514
15:41:16:213,21.309,-0.005,0.019,-0.008,14.343,-42.182,-11.593
15:41:16:25,21.346,-0.010,0.013,-0.006,14.412,-42.195,-11.570
15:41:16:264,21.360,0.001,0.032,-0.013,14.396,-42.175,-11.598
15:41:16:328,21.425,0.005,0.029,-0.019,14.376,-42.199,-11.631
15:41:16:328,21.425,-0.024,0.017,-0.011,14.363,-42.214,-11.576
15:41:16:35,21.447,-0.010,0.029,-0.022,14.364,-42.202,-11.552
15:41:16:4,21.497,-0.003,0.009,-0.006,14.268,-42.082,-11.556
15:41:16:425,21.521,0.008,-0.003,0.000,14.251,-42.022,-11.570
15:41:16:462,21.558,0.022,0.020,0.018,14.220,-41.938,-11.559
15:41:16:489,21.585,0.003,0.004,-0.004,14.228,-41.873,-11.456
15:41:16:5,21.596,0.005,-0.001,0.002,14.226,-41.810,-11.400
15:41:16:538,21.634,0.027,-0.004,0.017,14.172,-41.801,-11.541
15:41:16:599,21.696,0.013,0.010,0.004,14.239,-41.816,-11.570
15:41:16:637,21.734,-0.009,0.013,-0.015,14.273,-41.824,-11.606
15:41:16:837,21.933,0.048,-0.038,0.043,14.214,-41.508,-11.652
15:41:16:888,21.984,0.018,-0.009,0.002,14.461,-41.586,-11.781
15:41:16:913,22.009,0.009,0.001,-0.010,14.556,-41.755,-11.911
15:41:16:951,22.047,-0.021,0.049,-0.015,14.673,-41.986,-12.060
15:41:16:963,22.059,-0.035,0.054,-0.026,14.783,-42.092,-12.060
15:41:17:25,22.346,0.006,0.021,0.009,14.773,-42.053,-12.428
15:41:17:3,22.397,0.014,0.060,-0.003,14.823,-42.247,-12.502
15:41:17:387,22.484,0.022,-0.024,0.016,14.688,-42.320,-12.239
15:41:17:413,22.510,0.001,-0.015,0.008,14.659,-42.300,-12.142
15:41:17:438,22.535,0.002,-0.025,0.006,14.731,-42.329,-11.967
15:41:17:475,22.571,0.018,0.016,0.016,14.815,-42.441,-12.070
15:41:17:488,22.584,-0.002,0.025,0.003,14.864,-42.503,-12.077
15:41:17:514,22.610,-0.012,0.031,-0.008,14.926,-42.645,-12.103
15:41:17:539,22.635,-0.006,0.046,-0.006,14.961,-42.754,-12.186
15:41:17:564,22.660,-0.021,0.060,-0.013,14.997,-42.876,-12.243
15:41:17:6,22.697,-0.022,0.057,-0.015,14.988,-42.988,-12.250
15:41:17:64,22.737,-0.017,0.057,-0.026,14.932,-43.075,-12.310
15:41:17:641,22.738,-0.016,0.052,-0.032,14.786,-43.172,-12.306
15:41:17:726,22.822,0.012,-0.010,-0.002,14.343,-43.063,-12.247
15:41:17:801,22.897,0.036,-0.028,0.023,14.124,-42.938,-12.179
15:41:17:826,22.922,0.002,-0.031,0.006,14.154,-42.881,-12.032
15:41:17:879,22.976,0.017,0.018,0.015,14.276,-42.918,-12.056
15:41:17:9,22.997,-0.008,0.020,-0.014,14.359,-42.959,-11.992
15:41:17:925,23.021,-0.014,0.039,-0.015,14.403,-43.002,-11.993
15:41:17:95,23.046,-0.023,0.057,-0.013,14.474,-42.999,-11.991
15:41:17:975,23.071,-0.008,0.038,-0.009,14.488,-42.946,-11.936
15:41:18:013,23.109,-0.015,0.043,-0.021,14.459,-42.890,-11.848
15:41:18:088,23.184,0.016,0.002,0.006,14.317,-42.557,-11.747
15:41:18:112,23.209,0.022,0.000,0.001,14.246,-42.507,-11.734
15:41:18:266,23.362,-0.005,0.013,-0.005,14.109,-42.404,-11.835
15:41:18:412,23.509,0.009,0.007,0.013,14.218,-42.081,-11.796
15:41:18:425,23.522,0.023,0.015,0.013,14.237,-42.064,-11.860
15:41:18:478,23.575,0.025,0.010,0.019,14.246,-42.075,-11.925
15:41:18:478,23.575,0.006,0.009,-0.004,14.261,-42.081,-11.901
15:41:18:537,23.633,0.012,0.008,0.007,14.309,-42.136,-11.959
15:41:18:55,23.646,0.004,-0.005,-0.006,14.327,-42.159,-11.947
15:41:18:613,23.709,0.001,0.003,0.009,14.434,-42.223,-11.917
15:41:18:712,23.809,-0.005,0.017,-0.009,14.756,-42.381,-11.934
15:41:18:737,23.834,0.020,0.018,0.005,14.814,-42.502,-12.110
15:41:18:762,23.859,-0.011,0.018,0.002,14.862,-42.568,-12.117
15:41:18:787,23.884,-0.017,0.023,-0.009,14.925,-42.627,-12.085
15:41:18:812,23.909,0.007,0.042,-0.006,14.970,-42.659,-12.152
15:41:18:838,23.934,0.000,0.017,-0.002,15.021,-42.671,-12.137
15:41:18:863,23.959,0.006,0.017,-0.001,15.027,-42.688,-12.142
15:41:18:888,23.984,0.004,0.008,0.007,15.015,-42.716,-12.172
15:41:18:913,24.009,0.005,-0.002,-0.003,15.027,-42.760,-12.154
15:41:18:938,24.034,0.000,-0.015,0.011,15.040,-42.781,-12.133
15:41:18:963,24.059,0.000,-0.007,-0.006,15.090,-42.829,-12.094
15:41:18:989,24.085,-0.011,0.011,-0.010,15.162,-42.864,-12.061
15:41:19:025,24.122,-0.012,0.031,-0.008,15.260,-42.883,-12.043
15:41:19:088,24.185,-0.015,0.052,-0.011,15.388,-42.840,-11.930
15:41:19:1,24.197,-0.001,0.063,-0.001,15.463,-42.823,-11.942
15:41:19:125,24.221,0.000,0.049,-0.004,15.464,-42.801,-11.916
15:41:19:15,24.246,-0.012,0.028,-0.002,15.379,-42.749,-11.807
15:41:19:174,24.271,0.007,0.013,0.005,15.314,-42.734,-11.816
15:41:19:2,24.297,0.012,-0.001,-0.006,15.297,-42.712,-11.798
15:41:19:225,24.322,0.015,0.018,0.002,15.275,-42.661,-11.736
15:41:19:25,24.347,0.008,0.003,0.006,15.265,-42.621,-11.681
15:41:19:287,24.383,0.018,-0.012,-0.004,15.216,-42.608,-11.690
15:41:19:312,24.408,0.014,0.003,0.005,15.154,-42.703,-11.786
15:41:19:338,24.434,-0.016,0.005,-0.006,15.168,-42.741,-11.716
15:41:19:363,24.459,-0.011,0.005,-0.002,15.185,-42.726,-11.712
15:41:19:388,24.484,0.019,0.030,0.005,15.207,-42.730,-11.811
15:41:19:413,24.509,-0.009,0.033,-0.012,15.256,-42.741,-11.780
15:41:19:438,24.534,-0.013,0.026,-0.007,15.249,-42.741,-11.732
15:41:19:463,24.559,-0.005,0.038,-0.007,15.226,-42.722,-11.780
15:41:19:489,24.585,-0.002,0.016,-0.008,15.184,-42.707,-11.768
15:41:19:513,24.610,-0.013,0.014,-0.003,15.143,-42.698,-11.751
15:41:19:538,24.635,0.009,0.001,0.001,15.069,-42.682,-11.830
15:41:19:563,24.660,0.011,0.001,0.009,15.033,-42.665,-11.850
15:41:19:6,24.697,0.000,-0.004,-0.004,15.027,-42.624,-11.782
15:41:19:613,24.710,0.010,0.012,0.007,15.032,-42.570,-11.775
15:41:19:664,24.760,0.003,0.012,-0.003,15.014,-42.517,-11.745
15:41:19:7,24.796,0.020,0.009,0.004,15.001,-42.526,-11.808
15:41:19:725,24.821,-0.003,0.022,0.006,15.023,-42.504,-11.791
15:41:19:75,24.846,-0.001,0.003,-0.009,15.041,-42.451,-11.677
15:41:19:789,24.885,0.019,0.003,0.002,15.012,-42.444,-11.717
15:41:19:8,24.896,0.002,0.004,0.010,15.002,-42.446,-11.743
15:41:19:826,24.922,-0.011,0.019,-0.001,15.040,-42.448,-11.676
15:41:19:85,24.946,0.008,0.027,-0.004,15.089,-42.457,-11.719
15:41:19:875,24.972,0.009,0.025,0.002,15.076,-42.454,-11.758
15:41:19:9,24.997,-0.004,0.007,-0.002,15.040,-42.466,-11.724
15:41:19:937,25.034,0.000,0.007,-0.001,15.028,-42.513,-11.749
15:41:19:95,25.047,-0.009,0.008,-0.007,15.019,-42.534,-11.749
15:41:19:975,25.071,-0.009,0.012,-0.012,15.015,-42.524,-11.694
15:41:20:012,25.108,-0.008,0.012,-0.016,15.021,-42.504,-11.656
15:41:20:038,25.134,-0.003,0.015,-0.005,15.037,-42.454,-11.617
15:41:20:063,25.159,0.008,0.012,0.011,15.038,-42.391,-11.600
15:41:20:101,25.197,0.012,0.008,0.001,15.028,-42.357,-11.590
15:41:20:114,25.210,0.014,0.000,0.002,15.013,-42.349,-11.590
15:41:20:175,25.272,0.015,0.001,0.009,15.016,-42.348,-11.628
15:41:20:251,25.348,0.000,-0.010,0.002,15.103,-42.417,-11.658
15:41:20:262,25.359,0.005,0.021,0.001,15.147,-42.436,-11.686
15:41:20:3,25.396,-0.001,0.013,0.001,15.237,-42.452,-11.650
15:41:20:4,25.496,0.006,0.010,-0.005,15.333,-42.550,-11.696
15:41:20:425,25.521,0.004,0.000,-0.005,15.342,-42.556,-11.716
15:41:20:45,25.546,0.003,-0.002,0.015,15.381,-42.556,-11.738
15:41:20:613,25.709,-0.018,0.022,-0.008,15.640,-42.771,-11.794
15:41:20:625,25.721,-0.001,0.042,-0.012,15.609,-42.671,-11.809
15:41:20:663,25.759,0.004,0.002,0.009,15.598,-42.624,-11.805
15:41:20:688,25.784,0.001,0.006,0.013,15.560,-42.548,-11.836
15:41:20:714,25.810,0.020,0.005,0.009,15.519,-42.526,-11.891
15:41:20:739,25.835,0.008,-0.007,0.011,15.495,-42.538,-11.936
15:41:20:763,25.860,0.013,-0.001,0.011,15.495,-42.550,-12.004
15:41:20:8,25.897,0.013,-0.004,0.012,15.493,-42.574,-12.074
15:41:20:812,25.909,-0.003,0.002,0.003,15.533,-42.648,-12.155
15:41:20:914,26.010,-0.020,0.044,-0.027,15.701,-42.901,-12.241
15:41:20:937,26.034,-0.020,0.028,-0.012,15.711,-42.894,-12.237
15:41:21:014,26.111,-0.001,0.025,-0.006,15.640,-42.713,-12.081
15:41:21:05,26.146,-0.001,0.006,-0.001,15.618,-42.688,-12.083
15:41:21:075,26.171,-0.005,0.027,-0.003,15.551,-42.647,-12.080
15:41:21:1,26.196,0.002,0.019,0.003,15.517,-42.598,-12.095
15:41:21:125,26.221,0.001,0.013,-0.008,15.489,-42.520,-12.026
15:41:21:15,26.247,0.007,0.015,0.002,15.461,-42.476,-12.001
15:41:21:175,26.272,0.010,0.013,0.006,15.395,-42.406,-12.001
15:41:21:2,26.297,0.011,-0.003,0.003,15.317,-42.347,-11.960
15:41:21:238,26.335,0.014,-0.008,0.003,15.268,-42.315,-11.951
15:41:21:25,26.346,0.013,0.000,0.010,15.241,-42.295,-11.989
15:41:21:276,26.372,0.006,-0.005,-0.002,15.243,-42.294,-11.982
15:41:21:313,26.409,0.006,-0.002,-0.006,15.231,-42.332,-12.035
15:41:21:326,26.422,0.001,0.000,0.001,15.235,-42.351,-12.092
15:41:21:363,26.459,-0.008,-0.002,-0.007,15.250,-42.355,-12.114
15:41:21:387,26.484,0.011,0.024,-0.002,15.292,-42.369,-12.199
15:41:21:412,26.509,-0.002,0.012,-0.002,15.332,-42.347,-12.174
15:41:21:437,26.534,-0.003,0.021,-0.001,15.373,-42.296,-12.106
15:41:21:462,26.559,0.024,0.027,0.005,15.401,-42.332,-12.205
15:41:21:487,26.584,-0.004,0.009,0.002,15.414,-42.371,-12.232
15:41:21:513,26.609,-0.013,0.025,-0.013,15.421,-42.416,-12.227
15:41:21:587,26.684,-0.003,0.007,-0.004,15.463,-42.424,-12.238
15:41:21:613,26.709,0.002,0.020,0.001,15.404,-42.353,-12.239
15:41:21:638,26.734,0.011,0.017,0.011,15.420,-42.294,-12.273
15:41:21:663,26.759,0.009,0.020,0.002,15.428,-42.266,-12.279
15:41:21:688,26.784,0.011,0.006,0.006,15.371,-42.240,-12.312
15:41:21:725,26.821,0.025,0.013,0.010,15.322,-42.237,-12.389
15:41:21:825,26.922,0.028,0.022,0.023,15.213,-42.329,-12.585
15:41:21:975,27.071,0.004,0.000,0.000,15.229,-42.616,-12.980
15:41:22:013,27.109,-0.001,0.020,-0.011,15.302,-42.581,-13.025
15:41:22:025,27.121,0.021,0.004,0.018,15.344,-42.534,-13.025
15:41:22:076,27.172,0.027,0.004,0.023,15.405,-42.438,-13.025
15:41:22:088,27.184,0.034,0.004,0.027,15.494,-42.328,-12.967
15:41:22:138,27.234,0.027,0.044,0.029,15.617,-42.391,-12.988
15:41:22:163,27.259,-0.016,0.025,-0.007,15.650,-42.441,-12.899
15:41:22:212,27.309,-0.016,0.034,-0.008,15.710,-42.776,-13.062
15:41:22:237,27.334,-0.018,0.036,-0.020,15.748,-42.771,-12.995
15:41:22:262,27.359,0.005,0.053,-0.007,15.810,-42.726,-12.937
15:41:22:301,27.397,0.031,0.038,0.012,15.830,-42.677,-12.906
15:41:22:313,27.409,0.006,0.028,-0.001,15.797,-42.631,-12.848
15:41:22:4,27.496,-0.006,-0.018,-0.013,15.590,-42.677,-12.731
15:41:22:425,27.521,0.003,-0.027,0.000,15.550,-42.707,-12.772
15:41:22:45,27.546,-0.001,-0.021,-0.003,15.487,-42.761,-12.883
15:41:22:6,27.696,-0.009,0.035,-0.023,15.792,-42.997,-13.081
15:41:22:625,27.721,-0.006,0.067,-0.004,15.847,-43.011,-13.149
15:41:22:7,27.796,0.010,0.040,0.010,15.753,-42.803,-12.876
15:41:22:739,27.835,-0.001,0.034,0.005,15.706,-42.750,-12.819
15:41:22:762,27.859,-0.007,0.006,0.013,15.626,-42.664,-12.669
15:41:22:787,27.884,-0.005,0.025,0.007,15.556,-42.647,-12.720
15:41:22:812,27.909,0.022,0.017,0.010,15.538,-42.649,-12.750
15:41:22:838,27.934,0.011,0.002,-0.006,15.508,-42.615,-12.659
15:41:22:863,27.959,0.022,0.004,-0.006,15.434,-42.594,-12.649
15:41:22:889,27.985,0.024,-0.006,0.003,15.311,-42.599,-12.713
15:41:22:913,28.009,0.006,-0.020,-0.008,15.246,-42.639,-12.642
15:41:22:938,28.034,0.001,-0.025,-0.007,15.205,-42.682,-12.663
15:41:23:1,28.196,0.012,-0.015,0.010,15.361,-42.862,-13.007
15:41:23:125,28.221,0.010,0.013,0.027,15.438,-42.930,-13.116
15:41:23:15,28.247,-0.023,0.010,-0.011,15.553,-42.969,-13.049
15:41:23:187,28.284,-0.017,0.028,-0.031,15.614,-43.022,-13.089
15:41:23:2,28.297,0.002,0.040,0.007,15.709,-43.130,-13.324
15:41:23:263,28.359,-0.012,0.039,-0.013,15.866,-43.048,-13.178
15:41:23:276,28.372,0.039,0.047,0.019,15.888,-43.013,-13.477
15:41:23:376,28.473,0.016,0.000,0.008,15.763,-43.102,-13.288
15:41:23:401,28.498,0.007,0.009,0.013,15.731,-43.202,-13.271
15:41:23:437,28.533,-0.001,0.031,0.004,15.726,-43.296,-13.293
15:41:23:462,28.558,-0.009,0.018,-0.015,15.734,-43.400,-13.270
15:41:23:488,28.584,-0.010,0.031,-0.013,15.715,-43.477,-13.291
15:41:23:513,28.609,-0.023,0.033,-0.032,15.635,-43.607,-13.244
15:41:23:538,28.634,-0.034,0.002,-0.024,15.536,-43.679,-13.128
15:41:23:563,28.659,-0.022,0.005,-0.013,15.476,-43.677,-13.141
15:41:23:588,28.684,-0.013,0.013,-0.016,15.422,-43.644,-13.122
15:41:23:625,28.722,-0.023,0.006,-0.023,15.412,-43.593,-13.019
15:41:23:7,28.797,0.000,-0.002,0.005,15.288,-43.220,-12.854
15:41:23:712,28.809,0.022,-0.010,0.018,15.255,-43.093,-12.812
15:41:23:8,28.896,0.017,-0.008,0.020,15.337,-42.920,-12.926
15:41:23:825,28.921,0.006,0.033,0.019,15.372,-42.937,-12.957
15:41:23:851,28.947,0.024,0.040,0.034,15.446,-42.954,-13.064
15:41:23:875,28.971,-0.006,0.046,-0.009,15.514,-42.950,-12.979
15:41:23:901,28.997,0.009,0.044,-0.004,15.543,-43.023,-12.973
15:41:23:925,29.022,0.009,0.040,0.012,15.520,-43.051,-13.035
15:41:23:962,29.059,0.003,0.013,0.000,15.430,-43.042,-12.931
15:41:23:975,29.072,0.004,-0.007,-0.001,15.369,-43.104,-12.940
15:41:24:,29.097,0.011,-0.012,0.006,15.333,-43.133,-12.924
15:41:24:051,29.147,0.030,-0.138,0.021,15.221,-43.197,-12.824
15:41:24:076,29.172,0.051,-0.210,0.032,15.218,-43.358,-12.894
15:41:24:113,29.209,0.034,-0.356,0.046,15.236,-43.580,-12.873
15:41:24:138,29.234,0.091,-0.550,0.086,15.245,-43.884,-13.182
15:41:24:163,29.259,0.100,-0.724,0.174,15.465,-44.795,-14.561
15:41:24:202,29.298,0.118,-0.757,0.231,15.919,-45.679,-15.840
15:41:24:213,29.309,-0.017,-0.792,0.364,17.352,-47.434,-17.455
15:41:24:237,29.334,-0.206,-0.802,0.348,19.630,-49.776,-18.487
15:41:24:262,29.359,-0.214,-0.809,0.325,21.723,-51.497,-19.300
15:41:24:328,29.424,-0.444,-0.585,0.507,26.239,-54.331,-20.496
15:41:24:329,29.425,-0.511,-0.432,0.506,30.085,-56.241,-21.242
15:41:24:65,29.747,0.310,0.209,-0.347,92.588,-158.892,-104.792
15:41:24:675,29.772,0.587,0.193,-0.310,95.212,-169.809,-114.966
15:41:24:712,29.809,0.755,0.268,-0.302,96.612,-175.356,-118.626
15:41:24:725,29.822,0.725,0.241,-1.336,97.078,178.564,-117.763
