Time,Second,AccelerationX,AccelerationY,AccelerationZ,EulerAnglesX,EulerAnglesY,EulerAnglesZ
15:53:05:962,0.000,-0.001,0.041,0.043,-12.183,-39.787,-11.602
15:53:05:963,0.001,-0.014,0.113,0.042,-12.125,-39.812,-11.637
15:53:05:974,0.012,-0.074,0.053,0.010,-12.045,-39.771,-11.391
15:53:05:997,0.035,-0.049,0.104,0.021,-12.108,-39.776,-11.484
15:53:06:048,0.086,-0.036,0.057,0.020,-12.230,-39.663,-11.609
15:53:06:06,0.098,-0.002,0.017,0.002,-12.415,-39.480,-11.334
15:53:06:084,0.122,0.068,-0.007,0.074,-12.619,-39.393,-11.338
15:53:06:11,0.148,0.048,-0.097,0.010,-12.940,-39.274,-11.380
15:53:06:135,0.173,0.085,-0.070,0.005,-13.170,-39.313,-11.496
15:53:06:16,0.198,0.053,-0.109,0.008,-13.374,-39.431,-11.468
15:53:06:186,0.224,0.052,-0.098,-0.021,-13.373,-39.543,-11.359
15:53:06:211,0.249,0.055,-0.046,0.017,-13.333,-39.640,-11.411
15:53:06:262,0.300,0.015,-0.055,-0.012,-13.189,-39.743,-11.270
15:53:06:273,0.311,0.025,0.028,0.031,-13.067,-39.854,-11.305
15:53:06:285,0.323,0.009,-0.053,-0.001,-12.840,-39.973,-11.201
15:53:06:334,0.372,-0.013,0.103,0.081,-12.710,-40.102,-11.192
15:53:06:347,0.385,-0.026,0.028,0.031,-12.467,-40.286,-11.119
15:53:06:359,0.397,-0.060,0.050,-0.017,-12.318,-40.458,-10.946
15:53:06:41,0.447,-0.051,0.078,0.033,-12.278,-40.583,-11.028
15:53:06:422,0.460,-0.047,0.035,0.008,-12.221,-40.619,-10.901
15:53:06:447,0.485,-0.029,0.076,0.024,-12.162,-40.640,-10.828
15:53:06:561,0.598,0.028,-0.011,0.004,-12.560,-40.648,-10.668
15:53:06:573,0.610,0.019,-0.055,-0.010,-12.635,-40.706,-10.735
15:53:06:598,0.635,0.006,-0.028,0.004,-12.688,-40.777,-10.764
15:53:06:647,0.685,0.000,-0.047,-0.030,-12.658,-40.900,-10.851
15:53:06:672,0.710,-0.009,0.018,0.021,-12.711,-40.992,-10.909
15:53:06:709,0.747,-0.028,0.004,0.024,-12.662,-41.005,-10.896
15:53:06:835,0.872,-0.030,0.029,0.021,-12.563,-41.148,-10.991
15:53:06:884,0.922,0.009,-0.023,-0.013,-12.655,-41.089,-11.116
15:53:06:934,0.972,0.009,-0.026,-0.002,-12.825,-41.014,-11.582
15:53:07:022,1.060,-0.002,-0.023,-0.013,-12.298,-40.786,-11.838
15:53:07:048,1.086,-0.033,0.051,0.041,-12.079,-40.808,-11.979
15:53:07:06,1.098,-0.020,0.027,0.013,-11.872,-40.810,-12.031
15:53:07:197,1.235,-0.004,0.034,0.018,-11.857,-40.347,-11.567
15:53:07:247,1.285,0.018,-0.053,0.010,-12.136,-40.114,-11.044
15:53:07:372,1.410,0.007,-0.005,0.023,-12.344,-40.060,-10.344
15:53:07:411,1.449,-0.009,-0.027,0.002,-12.296,-40.051,-10.178
15:53:07:436,1.474,-0.016,0.041,0.020,-12.334,-40.186,-10.301
15:53:07:488,1.525,-0.017,0.064,0.026,-12.303,-40.240,-10.408
15:53:07:489,1.526,-0.025,-0.030,-0.019,-12.220,-40.178,-10.158
15:53:07:635,1.673,0.055,-0.093,0.005,-12.609,-39.995,-9.817
15:53:07:735,1.773,-0.013,0.001,-0.011,-12.427,-40.748,-9.987
15:53:07:797,1.835,-0.046,0.036,0.003,-12.114,-40.929,-10.004
15:53:07:822,1.860,-0.040,0.060,0.005,-11.923,-40.949,-10.050
15:53:07:903,1.941,-0.033,0.073,0.032,-11.841,-40.927,-10.114
15:53:07:903,1.941,-0.022,0.063,0.031,-11.809,-40.839,-10.085
15:53:07:904,1.942,-0.008,0.054,0.026,-11.841,-40.785,-10.085
15:53:07:95,1.988,0.001,0.029,0.023,-12.000,-40.719,-10.138
15:53:07:951,1.989,0.047,-0.013,0.042,-12.169,-40.658,-10.142
15:53:07:973,2.011,0.044,-0.031,0.035,-12.269,-40.623,-10.138
15:53:08:025,2.063,0.067,-0.098,0.031,-12.447,-40.641,-10.103
15:53:08:025,2.063,0.017,-0.089,-0.031,-12.517,-40.640,-9.855
15:53:08:047,2.085,0.005,0.014,0.007,-12.411,-40.684,-9.414
15:53:08:11,2.148,0.007,-0.011,0.003,-11.987,-40.830,-9.430
15:53:08:247,2.285,-0.034,0.035,0.014,-12.003,-41.273,-9.269
15:53:08:259,2.297,-0.016,0.013,0.025,-12.129,-41.285,-9.435
15:53:08:322,2.360,-0.005,-0.054,-0.012,-12.326,-41.195,-9.315
15:53:08:335,2.373,0.062,-0.048,0.006,-12.456,-41.202,-9.457
15:53:08:36,2.398,-0.004,-0.034,0.005,-12.454,-41.155,-9.393
15:53:08:425,2.463,0.025,-0.006,0.018,-12.333,-41.204,-9.312
15:53:08:426,2.464,0.018,-0.015,0.023,-12.276,-41.244,-9.399
15:53:08:501,2.539,-0.036,0.012,0.017,-12.255,-41.191,-9.434
15:53:08:647,2.685,0.039,-0.021,0.033,-12.381,-40.729,-9.545
15:53:08:684,2.722,0.025,-0.024,0.018,-12.352,-40.692,-9.559
15:53:08:709,2.747,0.019,0.008,0.017,-12.345,-40.716,-9.643
15:53:08:735,2.773,-0.005,-0.063,-0.012,-12.347,-40.697,-9.583
15:53:08:797,2.835,0.006,-0.031,0.019,-12.404,-40.777,-9.693
15:53:08:885,2.922,-0.017,0.029,0.039,-12.078,-40.672,-9.691
15:53:08:909,2.947,0.003,-0.004,0.011,-12.059,-40.646,-9.654
15:53:08:947,2.985,0.039,-0.001,0.027,-12.069,-40.666,-9.779
15:53:08:96,2.998,0.024,0.012,0.035,-12.047,-40.635,-9.682
15:53:08:985,3.023,0.031,0.021,0.053,-11.967,-40.656,-9.756
15:53:09:022,3.060,0.029,0.012,0.038,-11.947,-40.792,-9.777
15:53:09:035,3.073,0.015,0.001,0.021,-11.987,-40.880,-9.810
15:53:09:06,3.098,0.001,0.043,0.018,-12.111,-41.018,-9.684
15:53:09:123,3.161,-0.027,-0.018,-0.003,-12.232,-41.059,-9.384
15:53:09:135,3.173,-0.020,0.012,-0.014,-12.330,-41.109,-9.366
15:53:09:147,3.185,0.008,0.007,0.020,-12.393,-41.171,-9.391
15:53:09:172,3.210,0.002,-0.020,0.015,-12.403,-41.200,-9.316
15:53:09:197,3.235,0.039,-0.031,0.010,-12.471,-41.301,-9.321
15:53:09:222,3.260,0.025,-0.058,0.008,-12.482,-41.369,-9.327
15:53:09:248,3.286,0.021,-0.048,0.025,-12.409,-41.461,-9.363
15:53:09:273,3.311,0.013,0.000,0.025,-12.252,-41.569,-9.337
15:53:09:298,3.336,-0.001,0.015,0.029,-12.159,-41.636,-9.298
15:53:09:35,3.387,-0.019,0.030,0.005,-12.070,-41.714,-9.211
15:53:09:351,3.388,-0.010,0.037,-0.001,-12.044,-41.798,-9.214
15:53:09:372,3.410,-0.022,0.038,0.021,-12.015,-41.917,-9.255
15:53:09:409,3.447,-0.030,0.004,-0.006,-11.957,-41.928,-9.046
15:53:09:485,3.523,0.016,-0.048,0.006,-12.044,-41.932,-9.035
15:53:09:535,3.573,0.073,-0.039,0.028,-12.249,-42.038,-9.372
15:53:09:56,3.598,0.088,-0.023,0.052,-12.236,-42.259,-9.785
15:53:09:585,3.623,0.032,-0.080,0.002,-12.285,-42.561,-9.790
15:53:09:61,3.648,0.003,-0.062,-0.024,-12.375,-42.825,-9.882
15:53:09:635,3.672,-0.054,-0.013,-0.014,-12.408,-43.177,-10.161
15:53:09:66,3.697,-0.059,-0.012,-0.024,-12.293,-43.312,-10.189
15:53:09:712,3.750,-0.057,0.041,-0.021,-12.045,-43.434,-10.099
15:53:09:713,3.751,-0.060,0.041,-0.019,-11.908,-43.411,-9.869
15:53:09:759,3.797,-0.031,0.063,0.023,-11.868,-43.222,-9.750
15:53:09:798,3.836,-0.006,0.000,0.025,-11.881,-43.117,-9.690
15:53:09:876,3.913,0.027,-0.029,0.018,-12.224,-42.887,-10.076
15:53:09:972,4.010,0.006,0.009,0.025,-12.369,-42.832,-10.449
15:53:10:026,4.064,0.006,-0.030,0.009,-12.335,-42.846,-10.352
15:53:10:026,4.064,0.004,-0.021,0.014,-12.348,-42.916,-10.343
15:53:10:061,4.099,-0.009,-0.003,0.026,-12.312,-42.949,-10.424
15:53:10:072,4.110,-0.002,0.006,0.022,-12.183,-43.020,-10.492
15:53:10:11,4.147,0.008,0.028,0.042,-12.107,-43.103,-10.555
15:53:10:172,4.210,-0.003,0.006,-0.019,-12.102,-43.290,-10.505
15:53:10:186,4.224,-0.018,0.046,0.010,-12.070,-43.368,-10.513
15:53:10:21,4.248,-0.038,-0.010,-0.020,-11.952,-43.417,-10.339
15:53:10:264,4.301,-0.035,0.021,0.021,-11.934,-43.362,-10.249
15:53:10:284,4.322,0.010,-0.043,-0.009,-12.025,-43.249,-10.159
15:53:10:338,4.376,0.016,-0.020,0.028,-12.038,-43.116,-10.210
15:53:10:359,4.397,0.009,-0.032,0.017,-12.016,-43.081,-10.051
15:53:10:385,4.423,0.038,0.082,0.076,-11.995,-43.091,-10.035
15:53:10:41,4.448,0.008,-0.021,0.019,-11.964,-43.011,-9.751
15:53:10:447,4.485,-0.011,-0.044,-0.008,-12.042,-42.996,-9.258
15:53:10:5,4.538,0.008,-0.036,-0.026,-12.257,-43.088,-9.027
15:53:10:523,4.560,0.020,-0.010,0.018,-12.286,-43.089,-9.024
15:53:10:56,4.597,0.008,-0.030,0.024,-12.287,-43.076,-8.994
15:53:10:584,4.622,0.011,-0.001,0.027,-12.252,-43.063,-8.885
15:53:10:597,4.635,0.007,0.009,0.026,-12.201,-43.090,-8.849
15:53:10:798,4.836,0.011,0.019,0.032,-11.965,-42.945,-8.768
15:53:10:811,4.849,-0.003,-0.001,0.015,-11.946,-42.948,-8.813
15:53:10:835,4.872,-0.005,0.032,0.028,-11.920,-42.976,-8.867
15:53:10:884,4.922,-0.002,-0.037,-0.022,-11.906,-43.009,-8.932
15:53:10:947,4.985,0.004,0.004,0.018,-11.943,-43.023,-8.940
15:53:10:959,4.997,0.004,-0.016,0.001,-11.909,-43.034,-8.929
15:53:11:197,5.235,-0.088,0.093,-0.041,-11.712,-43.209,-9.473
15:53:11:273,5.311,0.006,0.024,0.011,-12.105,-42.442,-9.297
15:53:11:298,5.336,0.058,-0.050,0.040,-12.684,-42.103,-9.563
15:53:11:335,5.373,0.043,-0.094,0.005,-12.941,-41.892,-9.320
15:53:11:347,5.385,0.066,-0.074,0.036,-13.155,-41.761,-9.165
15:53:11:425,5.463,0.057,-0.079,0.015,-13.180,-41.548,-9.319
15:53:11:425,5.463,0.023,0.023,0.054,-13.291,-41.555,-9.485
15:53:11:459,5.497,0.028,-0.041,0.034,-13.322,-41.560,-9.396
15:53:11:497,5.535,0.043,-0.041,0.002,-13.314,-41.598,-9.403
15:53:11:649,5.687,-0.031,-0.004,-0.016,-13.247,-42.672,-9.408
15:53:11:66,5.698,-0.048,0.025,-0.015,-13.181,-42.995,-9.508
15:53:11:685,5.723,-0.039,-0.037,-0.038,-13.159,-43.121,-9.475
15:53:11:723,5.761,-0.046,0.038,-0.010,-13.145,-43.221,-9.449
15:53:11:735,5.773,-0.019,0.026,0.031,-13.101,-43.239,-9.465
15:53:11:897,5.935,0.027,0.028,0.057,-12.605,-43.030,-8.463
15:53:11:922,5.960,0.002,0.039,0.019,-12.276,-43.073,-8.227
15:53:11:948,5.986,-0.016,0.072,0.058,-12.158,-43.199,-8.202
15:53:11:973,6.011,-0.038,0.081,0.030,-12.142,-43.341,-8.043
15:53:11:998,6.036,-0.055,0.068,0.015,-12.179,-43.408,-7.953
15:53:12:035,6.072,-0.024,0.033,0.014,-12.266,-43.501,-7.935
15:53:12:047,6.084,0.004,0.007,0.025,-12.400,-43.519,-7.941
15:53:12:123,6.161,0.027,-0.029,0.015,-12.705,-43.529,-7.919
15:53:12:187,6.225,0.018,-0.057,-0.021,-12.815,-43.535,-7.906
15:53:12:188,6.226,0.027,-0.009,0.041,-12.931,-43.636,-8.106
15:53:12:235,6.273,0.013,-0.023,-0.006,-12.856,-43.720,-7.951
15:53:12:26,6.298,0.015,0.020,0.046,-12.830,-43.802,-8.078
15:53:12:285,6.323,-0.022,-0.021,0.001,-12.732,-43.815,-7.838
15:53:12:31,6.348,0.000,0.028,-0.003,-12.627,-43.916,-7.679
15:53:12:335,6.372,0.000,0.055,0.037,-12.530,-44.003,-7.765
15:53:12:36,6.397,-0.004,-0.018,-0.008,-12.373,-44.002,-7.620
15:53:12:384,6.422,0.004,0.045,0.054,-12.376,-44.029,-7.570
15:53:12:409,6.447,-0.008,-0.007,0.006,-12.422,-44.069,-7.440
15:53:12:434,6.472,-0.011,-0.027,0.008,-12.439,-44.096,-7.299
15:53:12:46,6.498,-0.009,-0.016,0.013,-12.446,-44.213,-7.372
15:53:12:51,6.548,-0.007,-0.029,-0.003,-12.396,-44.289,-7.463
15:53:12:522,6.560,-0.004,-0.015,0.006,-12.342,-44.298,-7.477
15:53:12:56,6.598,-0.012,0.010,0.017,-12.217,-44.321,-7.518
15:53:12:572,6.610,-0.010,0.009,0.003,-12.147,-44.316,-7.501
15:53:12:651,6.688,0.012,0.001,0.028,-12.173,-44.304,-7.646
15:53:12:651,6.688,-0.013,-0.021,-0.003,-12.066,-44.230,-7.324
15:53:12:672,6.710,0.022,-0.014,0.020,-11.914,-44.218,-7.156
15:53:12:726,6.764,0.031,-0.007,0.050,-11.828,-44.228,-7.236
15:53:12:726,6.764,0.025,-0.012,0.017,-11.681,-44.227,-7.164
15:53:12:747,6.785,-0.002,0.029,0.003,-11.594,-44.280,-7.111
15:53:12:801,6.839,-0.038,0.066,0.024,-11.417,-44.368,-7.224
15:53:12:801,6.839,-0.024,0.038,0.013,-11.227,-44.335,-7.219
15:53:12:837,6.875,-0.028,0.049,0.002,-11.181,-44.319,-7.223
15:53:12:873,6.911,-0.026,0.042,0.007,-11.198,-44.301,-7.264
15:53:12:885,6.923,-0.007,0.016,0.024,-11.216,-44.231,-7.253
15:53:12:948,6.985,0.022,-0.028,0.012,-11.340,-44.064,-7.416
15:53:12:96,6.997,0.039,-0.021,0.009,-11.420,-43.997,-7.372
15:53:12:984,7.022,0.029,-0.004,0.048,-11.527,-43.912,-7.443
15:53:13:009,7.047,0.028,-0.037,0.027,-11.534,-43.840,-7.616
15:53:13:11,7.148,0.020,-0.011,0.013,-11.535,-43.715,-7.632
15:53:13:148,7.186,-0.002,-0.012,0.014,-11.493,-43.743,-7.701
15:53:13:173,7.211,0.003,0.018,0.045,-11.372,-43.721,-7.536
15:53:13:198,7.236,-0.018,0.003,-0.008,-11.258,-43.684,-7.354
15:53:13:223,7.261,-0.006,0.011,0.027,-11.197,-43.745,-7.358
15:53:13:248,7.286,0.011,-0.028,0.028,-11.198,-43.740,-7.535
15:53:13:273,7.311,0.009,-0.025,0.005,-11.197,-43.671,-7.532
15:53:13:298,7.336,0.008,0.036,0.027,-11.191,-43.639,-7.544
15:53:13:323,7.361,-0.019,0.012,-0.002,-11.156,-43.681,-7.525
15:53:13:348,7.386,-0.014,0.002,-0.015,-11.125,-43.741,-7.457
15:53:13:373,7.411,-0.022,0.060,0.019,-11.086,-43.773,-7.447
15:53:13:425,7.463,-0.017,0.011,-0.005,-11.033,-43.755,-7.384
15:53:13:426,7.464,-0.013,0.030,0.010,-11.008,-43.780,-7.339
15:53:13:535,7.573,-0.042,0.040,-0.005,-11.100,-43.765,-7.203
15:53:13:572,7.609,-0.005,0.022,0.022,-11.150,-43.705,-7.295
15:53:13:585,7.622,0.004,0.029,0.046,-11.174,-43.608,-7.269
15:53:13:61,7.647,0.030,-0.005,0.034,-11.300,-43.527,-7.263
15:53:13:647,7.685,0.026,-0.003,0.035,-11.433,-43.555,-7.385
15:53:13:76,7.798,0.012,-0.009,-0.006,-11.904,-43.772,-7.379
15:53:13:785,7.823,0.013,-0.019,0.012,-11.988,-43.829,-7.434
15:53:13:822,7.860,-0.001,-0.042,0.001,-11.996,-43.831,-7.469
15:53:13:847,7.885,0.007,-0.028,0.008,-12.000,-43.854,-7.489
15:53:13:873,7.910,-0.008,0.021,0.017,-11.955,-43.936,-7.524
15:53:13:972,8.010,-0.015,0.017,0.016,-11.694,-44.053,-7.458
15:53:13:997,8.035,-0.004,0.028,0.004,-11.677,-44.051,-7.403
15:53:14:023,8.061,0.004,0.034,0.034,-11.662,-44.053,-7.455
15:53:14:047,8.085,-0.001,0.014,0.023,-11.655,-44.032,-7.444
15:53:14:072,8.110,-0.022,0.051,0.022,-11.709,-44.066,-7.505
15:53:14:11,8.148,-0.010,0.032,0.025,-11.758,-44.073,-7.493
15:53:14:16,8.197,0.012,0.002,0.021,-11.929,-44.072,-7.362
15:53:14:259,8.297,0.010,-0.025,0.002,-12.260,-44.248,-7.444
15:53:14:385,8.423,-0.024,0.006,0.007,-12.138,-44.375,-7.399
15:53:14:46,8.497,0.002,0.029,0.031,-12.066,-44.255,-7.299
15:53:14:534,8.572,0.024,0.005,0.046,-12.051,-44.138,-7.345
15:53:14:547,8.585,0.025,-0.005,0.044,-12.101,-44.128,-7.341
15:53:14:647,8.685,-0.015,0.029,0.008,-12.028,-44.235,-7.185
15:53:14:822,8.860,0.000,-0.006,0.010,-12.087,-44.466,-7.142
15:53:14:885,8.923,0.004,-0.005,0.005,-12.102,-44.505,-7.149
15:53:14:911,8.949,0.000,-0.043,-0.024,-12.104,-44.522,-7.115
15:53:14:963,9.001,-0.017,-0.014,-0.026,-12.080,-44.553,-7.107
15:53:14:963,9.001,-0.001,-0.002,0.017,-11.977,-44.533,-7.120
15:53:14:998,9.036,-0.012,-0.010,0.012,-11.912,-44.495,-7.103
15:53:15:086,9.124,-0.005,0.031,0.029,-11.626,-44.477,-7.222
15:53:15:123,9.161,0.004,0.044,0.031,-11.614,-44.494,-7.311
15:53:15:134,9.172,0.014,0.030,0.040,-11.636,-44.501,-7.409
15:53:15:248,9.285,0.041,-0.101,0.018,-11.944,-44.636,-7.567
15:53:15:273,9.310,0.088,-0.186,-0.031,-11.993,-44.746,-7.631
15:53:15:298,9.335,0.022,-0.049,0.051,-11.824,-44.843,-7.693
15:53:15:348,9.386,-0.012,-0.002,-0.007,-11.284,-45.051,-7.653
15:53:15:388,9.426,-0.009,0.056,0.012,-10.960,-45.209,-7.731
15:53:15:388,9.426,-0.035,0.101,0.023,-10.645,-45.337,-7.785
15:53:15:425,9.463,-0.060,0.125,0.012,-10.441,-45.366,-7.635
15:53:15:426,9.464,-0.049,0.116,0.005,-10.368,-45.374,-7.542
15:53:15:574,9.611,0.022,-0.041,0.014,-10.869,-45.305,-7.592
15:53:15:585,9.622,-0.003,0.014,0.003,-11.066,-45.394,-7.635
15:53:15:623,9.661,-0.001,-0.009,0.019,-11.101,-45.445,-7.563
15:53:15:647,9.685,-0.005,-0.036,-0.015,-11.166,-45.474,-7.480
15:53:15:684,9.722,0.003,0.004,0.024,-11.328,-45.517,-7.540
15:53:15:737,9.775,0.004,-0.001,-0.001,-11.409,-45.545,-7.457
15:53:15:738,9.776,0.011,0.021,0.012,-11.454,-45.578,-7.498
15:53:15:822,9.860,0.020,-0.022,0.018,-11.786,-45.773,-7.701
15:53:15:96,9.998,-0.120,0.136,-0.006,-11.805,-46.072,-7.787
15:53:15:985,10.023,-0.062,0.013,-0.021,-11.913,-45.846,-7.611
15:53:15:997,10.035,-0.007,0.000,0.029,-12.084,-45.659,-7.560
15:53:16:072,10.110,0.030,-0.006,0.005,-12.472,-45.146,-7.641
15:53:16:111,10.149,0.045,-0.033,0.055,-12.641,-44.989,-7.630
15:53:16:122,10.160,0.085,-0.094,0.028,-12.772,-44.848,-7.564
15:53:16:147,10.185,0.064,0.007,0.035,-12.936,-44.840,-7.723
15:53:16:198,10.236,0.042,0.000,0.056,-12.928,-44.851,-7.771
15:53:16:21,10.247,0.027,-0.065,0.006,-12.905,-44.882,-7.677
15:53:16:236,10.273,0.010,0.035,0.045,-12.910,-45.005,-7.843
15:53:16:347,10.385,-0.012,-0.007,0.002,-13.244,-45.521,-8.970
15:53:16:36,10.398,-0.001,0.021,0.017,-13.559,-45.775,-9.403
15:53:16:447,10.485,-0.012,0.035,0.016,-13.706,-45.704,-9.731
15:53:16:459,10.497,0.020,0.003,0.020,-13.584,-45.574,-9.802
15:53:16:497,10.535,-0.003,0.027,0.013,-13.521,-45.527,-9.848
15:53:16:522,10.560,0.015,0.008,0.033,-13.465,-45.427,-9.856
15:53:16:547,10.585,0.008,0.007,0.018,-13.487,-45.364,-9.773
15:53:16:572,10.610,0.019,-0.010,0.014,-13.527,-45.373,-9.725
15:53:16:61,10.648,0.029,-0.024,0.030,-13.475,-45.368,-9.324
15:53:16:623,10.661,0.010,-0.007,0.013,-13.388,-45.362,-8.962
15:53:16:662,10.699,-0.001,0.008,0.012,-13.306,-45.389,-8.845
15:53:16:673,10.710,0.004,0.007,0.006,-13.321,-45.420,-9.048
15:53:16:697,10.735,0.000,-0.013,0.026,-13.327,-45.412,-9.030
15:53:16:734,10.772,-0.015,0.018,0.002,-13.288,-45.407,-8.751
15:53:16:747,10.785,-0.008,0.016,0.016,-13.219,-45.403,-8.623
15:53:16:772,10.810,0.002,-0.025,-0.011,-13.167,-45.357,-8.540
15:53:16:81,10.848,-0.001,0.038,0.030,-13.164,-45.349,-8.635
15:53:16:822,10.860,0.003,0.022,0.032,-13.149,-45.287,-8.553
15:53:16:86,10.898,0.017,-0.012,0.009,-13.144,-45.293,-8.391
15:53:16:935,10.973,-0.004,-0.020,-0.005,-13.195,-45.293,-8.385
15:53:17:01,11.048,-0.006,-0.029,-0.001,-13.155,-45.391,-8.307
15:53:17:035,11.073,-0.006,0.015,0.001,-13.114,-45.453,-8.319
15:53:17:06,11.098,0.014,-0.011,0.031,-13.059,-45.452,-8.366
15:53:17:085,11.123,-0.006,-0.041,-0.007,-12.997,-45.423,-8.356
15:53:17:198,11.236,-0.008,0.039,0.020,-12.604,-45.575,-8.516
15:53:17:235,11.273,0.004,0.028,0.026,-12.456,-45.615,-8.520
15:53:17:247,11.285,-0.005,0.024,0.004,-12.376,-45.638,-8.458
15:53:17:322,11.360,-0.026,0.055,0.005,-12.014,-45.641,-8.159
15:53:17:374,11.412,-0.010,0.035,0.014,-12.183,-45.544,-8.267
15:53:17:397,11.434,0.002,0.032,0.017,-12.271,-45.473,-8.158
15:53:17:509,11.547,0.025,-0.024,0.025,-12.833,-45.258,-8.064
15:53:17:522,11.560,0.012,-0.027,0.033,-12.909,-45.195,-8.061
15:53:17:61,11.648,0.022,-0.042,0.021,-13.061,-45.287,-8.231
15:53:17:635,11.673,0.001,-0.037,-0.020,-13.076,-45.346,-8.150
15:53:17:66,11.698,-0.021,-0.008,0.008,-13.068,-45.460,-8.151
15:53:17:685,11.723,-0.020,-0.023,-0.022,-13.040,-45.491,-8.067
15:53:17:737,11.775,-0.028,0.018,0.003,-12.989,-45.528,-7.999
15:53:17:738,11.776,-0.034,0.022,0.006,-12.942,-45.530,-8.012
15:53:17:81,11.848,0.004,0.012,0.037,-12.947,-45.387,-7.959
15:53:17:835,11.873,0.010,0.002,0.022,-12.844,-45.348,-7.981
15:53:17:861,11.899,0.001,0.019,0.011,-12.755,-45.357,-8.019
15:53:17:897,11.935,-0.007,0.050,0.033,-12.728,-45.347,-8.046
15:53:17:922,11.960,-0.003,0.018,0.002,-12.728,-45.282,-7.912
15:53:17:961,11.999,-0.007,0.012,0.010,-12.743,-45.267,-7.899
15:53:17:973,12.011,0.009,-0.001,0.009,-12.779,-45.232,-8.019
15:53:18:097,12.135,0.000,-0.023,0.010,-12.941,-45.163,-7.988
15:53:18:122,12.160,0.004,-0.002,-0.002,-12.968,-45.152,-7.931
15:53:18:16,12.198,0.006,-0.018,-0.007,-13.003,-45.182,-8.000
15:53:18:21,12.248,0.012,-0.010,0.010,-12.906,-45.141,-8.067
15:53:18:237,12.275,0.018,-0.036,0.018,-12.872,-45.182,-8.233
15:53:18:272,12.310,0.018,0.009,0.013,-12.847,-45.241,-8.480
15:53:18:298,12.335,-0.010,0.034,0.041,-12.685,-45.313,-8.791
15:53:18:31,12.347,-0.007,-0.017,-0.014,-12.563,-45.348,-8.769
15:53:18:359,12.397,-0.019,0.030,0.012,-12.440,-45.432,-8.845
15:53:18:384,12.422,-0.042,0.025,-0.019,-12.340,-45.403,-8.671
15:53:18:526,12.564,0.028,-0.012,0.044,-12.430,-44.964,-8.115
15:53:18:538,12.576,0.050,-0.055,0.041,-12.504,-44.958,-7.976
15:53:18:584,12.622,0.073,-0.060,0.053,-12.575,-45.046,-8.041
15:53:18:597,12.635,0.097,-0.059,0.065,-12.640,-45.256,-8.262
15:53:18:622,12.660,0.029,-0.092,-0.038,-12.667,-45.579,-8.435
15:53:18:735,12.773,-0.040,0.046,0.011,-12.351,-46.142,-8.978
15:53:18:748,12.785,-0.048,0.025,-0.020,-12.190,-46.023,-8.539
15:53:18:809,12.847,-0.019,0.060,0.041,-11.951,-46.001,-8.627
15:53:18:835,12.873,-0.029,0.035,0.008,-11.945,-45.958,-8.593
15:53:18:847,12.885,-0.018,0.074,0.037,-11.997,-45.920,-8.465
15:53:18:935,12.973,0.015,0.040,0.054,-12.045,-45.695,-8.461
15:53:18:972,13.010,0.021,-0.077,-0.014,-12.102,-45.607,-8.358
15:53:18:997,13.035,0.018,-0.023,0.006,-12.327,-45.640,-8.269
15:53:19:011,13.049,0.013,-0.045,0.018,-12.411,-45.738,-8.358
15:53:19:037,13.075,-0.006,-0.050,-0.030,-12.360,-45.854,-8.285
15:53:19:088,13.125,-0.024,-0.007,-0.025,-12.292,-45.981,-8.241
15:53:19:089,13.126,-0.023,-0.013,-0.013,-12.270,-46.021,-8.232
15:53:19:122,13.160,-0.015,-0.024,-0.019,-12.232,-46.023,-8.185
15:53:19:134,13.172,-0.007,0.035,0.023,-12.156,-46.033,-8.202
15:53:19:197,13.235,0.007,0.029,0.016,-11.962,-45.978,-8.211
15:53:19:222,13.260,0.020,-0.021,0.046,-11.986,-45.965,-8.349
15:53:19:235,13.273,0.036,0.008,0.038,-12.095,-46.025,-8.532
15:53:19:297,13.335,0.008,-0.015,0.031,-12.100,-46.301,-8.783
15:53:19:322,13.360,-0.005,0.019,-0.016,-12.152,-46.438,-8.790
15:53:19:348,13.385,-0.034,0.013,-0.011,-12.178,-46.573,-8.746
15:53:19:373,13.410,-0.028,-0.045,-0.018,-12.148,-46.622,-8.607
15:53:19:397,13.435,-0.020,0.008,-0.030,-12.157,-46.671,-8.677
15:53:19:422,13.460,-0.020,0.014,-0.007,-12.107,-46.685,-8.730
15:53:19:447,13.485,-0.012,-0.025,0.009,-12.027,-46.625,-8.580
15:53:19:513,13.551,-0.008,0.006,0.014,-11.993,-46.588,-8.598
15:53:19:513,13.551,0.008,0.001,0.028,-11.972,-46.538,-8.665
15:53:19:535,13.573,-0.003,-0.010,0.004,-11.956,-46.500,-8.558
15:53:19:547,13.585,0.025,-0.014,0.024,-11.945,-46.485,-8.540
15:53:19:709,13.747,-0.029,0.041,0.023,-11.817,-46.697,-8.689
15:53:19:734,13.772,-0.043,0.046,-0.008,-11.824,-46.718,-8.567
15:53:19:759,13.797,-0.028,0.002,-0.012,-11.863,-46.716,-8.472
15:53:19:812,13.850,-0.030,0.016,-0.005,-11.931,-46.696,-8.523
15:53:19:813,13.851,-0.015,0.015,0.018,-11.949,-46.574,-8.493
15:53:19:922,13.960,-0.013,-0.058,-0.030,-12.141,-46.399,-8.274
15:53:19:973,14.011,0.009,-0.019,0.031,-11.913,-46.374,-8.499
15:53:19:998,14.035,-0.005,0.013,0.025,-11.728,-46.276,-8.429
15:53:20:023,14.060,-0.014,0.071,0.031,-11.648,-46.264,-8.393
15:53:20:047,14.085,-0.013,0.064,0.033,-11.567,-46.264,-8.303
15:53:20:072,14.110,-0.010,0.049,0.025,-11.524,-46.211,-8.208
15:53:20:125,14.163,-0.015,0.052,0.020,-11.535,-46.135,-8.201
15:53:20:126,14.164,0.005,0.032,0.021,-11.644,-46.081,-8.183
15:53:20:198,14.236,0.015,0.012,0.031,-11.822,-45.892,-7.933
15:53:20:21,14.248,0.008,0.011,0.019,-11.884,-45.848,-7.879
15:53:20:364,14.401,-0.008,-0.032,-0.009,-12.422,-45.814,-7.686
15:53:20:364,14.401,-0.022,-0.021,-0.004,-12.412,-45.840,-7.625
15:53:20:385,14.422,0.005,-0.014,-0.024,-12.364,-45.820,-7.608
15:53:20:437,14.475,-0.004,-0.002,-0.004,-12.327,-45.796,-7.650
15:53:20:438,14.476,0.022,0.005,0.026,-12.244,-45.697,-7.630
15:53:20:515,14.553,0.015,0.002,0.024,-12.124,-45.580,-7.713
15:53:20:535,14.573,-0.002,0.000,0.011,-12.059,-45.579,-7.709
15:53:20:56,14.598,0.022,0.000,0.007,-12.010,-45.609,-7.844
15:53:20:585,14.623,0.016,0.014,0.028,-12.000,-45.615,-7.887
15:53:20:622,14.660,0.007,-0.005,0.031,-11.981,-45.623,-7.794
15:53:20:672,14.710,0.003,-0.005,0.023,-11.964,-45.753,-7.976
15:53:20:697,14.735,-0.030,0.027,0.004,-11.895,-45.824,-7.892
15:53:20:722,14.760,-0.040,0.034,0.004,-11.856,-45.878,-7.827
15:53:20:748,14.785,-0.046,0.014,0.002,-11.896,-45.915,-7.807
15:53:20:822,14.860,-0.007,-0.003,0.008,-11.903,-45.696,-7.541
15:53:20:847,14.885,0.022,0.017,0.017,-11.922,-45.608,-7.586
15:53:20:872,14.910,0.038,0.023,0.032,-11.970,-45.482,-7.521
15:53:20:897,14.935,0.040,-0.001,0.039,-12.002,-45.408,-7.390
15:53:20:935,14.973,0.029,-0.008,0.020,-12.086,-45.429,-7.384
15:53:21:06,15.097,-0.019,-0.027,0.003,-12.268,-45.793,-7.309
15:53:21:234,15.272,0.015,-0.015,0.028,-12.477,-45.399,-7.455
15:53:21:298,15.336,0.004,-0.014,0.015,-12.599,-45.024,-7.427
15:53:21:323,15.361,0.006,-0.024,0.011,-12.571,-44.991,-7.457
15:53:21:36,15.398,-0.003,-0.014,-0.006,-12.558,-45.011,-7.492
15:53:21:372,15.410,-0.015,-0.009,-0.005,-12.579,-45.002,-7.608
15:53:21:46,15.498,-0.011,0.022,0.039,-12.536,-44.738,-7.966
15:53:21:473,15.511,0.010,0.033,0.016,-12.499,-44.627,-7.881
15:53:21:535,15.572,0.006,0.009,0.023,-12.565,-44.329,-7.677
15:53:21:559,15.597,0.008,-0.001,0.008,-12.620,-44.170,-7.652
15:53:21:584,15.622,0.023,0.003,0.019,-12.671,-44.055,-7.657
15:53:21:597,15.635,0.020,0.003,0.033,-12.670,-43.965,-7.695
15:53:21:711,15.749,0.003,-0.035,-0.002,-12.865,-43.898,-7.909
15:53:21:736,15.774,0.008,-0.012,-0.006,-12.877,-43.991,-8.082
15:53:21:761,15.799,-0.015,0.017,-0.015,-12.839,-44.072,-8.230
15:53:21:786,15.824,-0.041,0.008,-0.025,-12.798,-44.115,-8.181
15:53:21:811,15.848,-0.035,0.013,-0.020,-12.762,-44.159,-8.207
15:53:21:835,15.872,-0.006,-0.013,-0.001,-12.721,-44.143,-8.326
15:53:21:897,15.935,0.015,-0.003,0.016,-12.581,-44.062,-8.359
15:53:21:922,15.960,0.008,-0.025,0.003,-12.545,-43.993,-8.347
15:53:21:934,15.972,0.004,0.007,0.002,-12.488,-43.951,-8.319
15:53:21:997,16.035,0.019,0.008,0.014,-12.315,-44.193,-8.448
15:53:22:022,16.060,0.031,-0.039,0.021,-12.352,-44.190,-8.565
15:53:22:047,16.085,-0.010,0.000,0.012,-12.364,-44.202,-8.590
15:53:22:073,16.111,-0.024,-0.030,-0.021,-12.325,-44.143,-8.587
15:53:22:098,16.136,-0.030,0.003,-0.025,-12.257,-44.129,-8.677
15:53:22:123,16.160,-0.040,0.062,0.011,-12.099,-43.996,-8.805
15:53:22:148,16.185,-0.027,0.053,0.021,-12.084,-43.908,-8.981
15:53:22:173,16.210,-0.022,0.037,0.033,-12.178,-43.878,-9.216
15:53:22:197,16.235,-0.005,0.040,0.021,-12.307,-43.778,-9.273
15:53:22:222,16.260,0.014,0.015,0.005,-12.409,-43.715,-9.244
15:53:22:248,16.286,0.026,-0.001,0.027,-12.512,-43.908,-9.282
15:53:22:285,16.323,0.038,-0.024,0.025,-12.580,-43.816,-9.254
15:53:22:298,16.336,0.028,-0.021,0.012,-12.636,-43.824,-9.223
15:53:22:348,16.386,0.019,-0.036,0.015,-12.719,-43.808,-9.191
15:53:22:36,16.398,0.007,-0.033,-0.006,-12.729,-43.736,-9.147
15:53:22:434,16.472,0.008,-0.039,0.007,-12.606,-43.861,-9.147
15:53:22:459,16.497,-0.009,0.002,-0.003,-12.534,-43.984,-9.174
15:53:22:484,16.522,-0.015,0.016,0.002,-12.445,-44.040,-9.166
15:53:22:51,16.548,-0.011,0.023,0.016,-12.281,-44.122,-9.188
15:53:22:685,16.722,0.012,-0.001,0.030,-12.173,-44.234,-9.293
15:53:22:698,16.735,0.012,-0.022,0.006,-12.163,-44.238,-9.235
15:53:22:759,16.797,0.014,-0.012,0.017,-12.193,-44.358,-9.385
15:53:22:784,16.822,0.012,-0.045,-0.009,-12.123,-44.238,-9.383
15:53:22:81,16.848,0.002,-0.043,-0.016,-12.114,-44.298,-9.414
15:53:22:822,16.860,-0.009,0.010,0.010,-12.048,-44.231,-9.507
15:53:22:9,16.938,-0.022,-0.009,-0.005,-11.899,-44.219,-9.420
15:53:22:901,16.939,-0.015,0.043,0.029,-11.843,-44.284,-9.415
15:53:22:922,16.960,-0.043,0.045,-0.008,-11.800,-44.293,-9.216
15:53:22:961,16.999,-0.041,0.078,0.001,-11.743,-44.308,-9.121
15:53:22:986,17.023,-0.016,0.059,0.027,-11.750,-44.277,-9.112
15:53:23:011,17.049,-0.037,0.025,0.004,-11.817,-44.215,-8.989
15:53:23:047,17.085,-0.018,0.047,0.044,-11.959,-44.160,-8.943
15:53:23:06,17.098,-0.012,0.054,0.042,-12.007,-44.126,-8.957
15:53:23:135,17.173,0.007,-0.061,-0.006,-12.715,-44.159,-8.917
15:53:23:199,17.237,0.019,-0.055,-0.031,-12.982,-44.181,-8.806
15:53:23:21,17.247,0.026,-0.047,0.001,-12.896,-44.217,-8.994
15:53:23:235,17.272,0.003,0.007,0.017,-12.808,-44.202,-9.023
15:53:23:289,17.327,-0.014,0.039,0.024,-12.610,-44.169,-8.935
15:53:23:289,17.327,-0.012,-0.024,-0.009,-12.493,-44.175,-8.912
15:53:23:322,17.360,-0.026,0.031,-0.003,-12.499,-44.182,-9.010
15:53:23:372,17.410,-0.014,0.030,-0.009,-12.342,-43.974,-8.872
15:53:23:448,17.486,-0.007,0.042,0.027,-12.313,-43.636,-8.832
15:53:23:51,17.548,0.033,-0.026,0.021,-12.548,-43.494,-8.881
15:53:23:6,17.638,0.033,-0.097,-0.009,-13.007,-43.488,-8.862
15:53:23:601,17.639,0.020,-0.030,-0.010,-13.112,-43.558,-8.976
15:53:23:762,17.800,-0.018,0.030,0.003,-12.947,-43.604,-8.783
15:53:23:785,17.823,0.006,-0.016,-0.002,-12.950,-43.498,-8.767
15:53:23:822,17.860,0.001,-0.005,0.001,-12.983,-43.433,-8.705
15:53:23:837,17.875,0.013,0.011,0.031,-13.037,-43.358,-8.760
15:53:23:86,17.898,-0.001,-0.035,-0.007,-13.020,-43.286,-8.742
15:53:23:947,17.985,0.007,0.002,0.018,-12.884,-43.208,-8.802
15:53:23:973,18.010,0.020,-0.032,0.007,-12.801,-43.171,-8.884
15:53:23:997,18.035,-0.014,-0.026,-0.021,-12.791,-43.153,-8.936
15:53:24:211,18.249,-0.001,0.001,0.011,-12.261,-43.133,-9.247
15:53:24:236,18.273,0.001,0.026,0.028,-12.226,-43.100,-9.402
15:53:24:248,18.285,0.009,0.008,0.022,-12.229,-43.055,-9.404
15:53:24:438,18.476,-0.004,0.028,0.004,-12.045,-43.329,-9.635
15:53:24:535,18.572,0.011,-0.013,0.007,-12.031,-43.487,-9.559
15:53:24:675,18.713,0.006,-0.029,0.013,-12.010,-43.667,-9.632
15:53:24:676,18.714,-0.010,0.002,0.008,-12.024,-43.735,-9.847
15:53:24:723,18.761,-0.049,0.014,-0.019,-11.942,-43.769,-9.962
15:53:24:748,18.786,-0.008,-0.005,0.006,-11.924,-43.694,-9.959
15:53:24:773,18.811,-0.021,-0.011,0.005,-11.888,-43.503,-9.646
15:53:24:798,18.836,-0.005,0.010,0.012,-11.830,-43.375,-9.298
15:53:24:835,18.872,0.001,0.026,0.011,-11.779,-43.317,-9.284
15:53:24:848,18.885,0.006,0.006,0.030,-11.733,-43.192,-9.249
15:53:24:923,18.961,0.015,-0.028,0.036,-11.822,-43.141,-9.395
15:53:24:948,18.986,0.013,0.012,0.023,-11.735,-43.169,-9.382
15:53:24:973,19.011,0.008,-0.026,0.008,-11.652,-43.268,-9.323
15:53:24:997,19.035,-0.001,0.004,0.021,-11.679,-43.375,-9.421
15:53:25:035,19.073,-0.023,0.018,0.004,-11.675,-43.523,-9.373
15:53:25:06,19.098,-0.018,-0.006,-0.020,-11.596,-43.614,-9.290
15:53:25:098,19.136,-0.030,0.028,-0.021,-11.557,-43.682,-9.339
15:53:25:16,19.197,-0.016,0.023,0.032,-11.685,-43.806,-9.350
15:53:25:184,19.222,0.019,0.025,0.065,-11.721,-43.834,-9.356
15:53:25:209,19.247,-0.016,-0.046,-0.018,-11.673,-43.881,-9.032
15:53:25:247,19.285,0.001,0.034,0.033,-11.617,-43.966,-9.173
15:53:25:26,19.298,-0.017,0.053,0.009,-11.615,-43.986,-9.350
15:53:25:285,19.323,-0.018,-0.035,-0.021,-11.627,-43.934,-9.170
15:53:25:31,19.348,-0.016,-0.023,-0.022,-11.661,-43.937,-9.110
15:53:25:347,19.385,0.004,0.010,0.021,-11.702,-43.931,-9.287
15:53:25:372,19.410,0.009,-0.031,0.000,-11.742,-43.896,-9.436
15:53:25:397,19.435,0.008,-0.030,-0.007,-11.784,-43.890,-9.513
15:53:25:436,19.474,0.002,-0.011,0.008,-11.783,-43.881,-9.545
15:53:25:447,19.485,0.001,-0.015,0.000,-11.770,-43.876,-9.605
15:53:25:473,19.511,0.002,0.010,0.005,-11.752,-43.883,-9.767
15:53:25:497,19.535,-0.007,-0.007,0.008,-11.668,-43.863,-9.755
15:53:25:522,19.560,0.004,0.009,0.015,-11.611,-43.857,-9.802
15:53:25:56,19.598,0.008,0.004,0.015,-11.537,-43.835,-9.933
15:53:25:572,19.610,-0.010,0.012,-0.001,-11.495,-43.823,-9.928
15:53:25:598,19.636,-0.027,0.032,-0.018,-11.461,-43.867,-9.993
15:53:25:623,19.660,-0.033,0.023,0.003,-11.464,-43.894,-10.161
15:53:25:648,19.685,-0.073,0.021,-0.037,-11.530,-43.728,-10.083
15:53:25:672,19.710,-0.004,0.039,0.021,-11.617,-43.487,-10.072
15:53:25:697,19.735,0.021,0.020,0.025,-11.606,-43.315,-10.149
15:53:25:747,19.785,0.034,-0.050,0.035,-11.518,-43.091,-10.137
15:53:25:76,19.798,0.017,-0.022,0.053,-11.535,-42.996,-10.151
15:53:25:86,19.898,0.011,-0.004,0.027,-11.638,-42.969,-10.407
15:53:25:909,19.947,0.009,-0.001,0.011,-11.659,-43.096,-10.537
15:53:25:934,19.972,0.006,-0.013,0.002,-11.712,-43.218,-10.617
15:53:25:989,20.027,-0.012,0.000,-0.003,-11.700,-43.284,-10.571
15:53:25:989,20.027,-0.012,0.010,0.000,-11.660,-43.391,-10.587
15:53:26:022,20.060,-0.026,0.000,0.004,-11.630,-43.461,-10.618
15:53:26:172,20.210,-0.020,0.002,0.012,-11.296,-43.864,-10.679
15:53:26:297,20.335,-0.012,0.007,0.018,-11.027,-43.721,-10.740
15:53:26:322,20.360,-0.010,-0.001,-0.010,-11.026,-43.732,-10.686
15:53:26:347,20.385,-0.013,0.019,-0.003,-11.048,-43.761,-10.691
15:53:26:385,20.423,-0.015,-0.018,0.002,-11.080,-43.761,-10.694
15:53:26:411,20.448,0.012,-0.024,-0.007,-11.111,-43.736,-10.683
15:53:26:436,20.473,0.010,-0.035,-0.001,-11.168,-43.733,-10.792
15:53:26:46,20.498,0.006,-0.026,0.001,-11.170,-43.733,-10.815
15:53:26:485,20.523,0.007,-0.016,-0.003,-11.133,-43.723,-10.737
15:53:26:511,20.549,0.003,0.022,0.030,-11.090,-43.730,-10.808
15:53:26:547,20.585,-0.016,-0.004,-0.001,-11.048,-43.739,-10.816
15:53:26:601,20.639,-0.005,0.001,-0.004,-11.033,-43.759,-10.759
15:53:26:601,20.639,-0.008,0.007,0.009,-11.020,-43.773,-10.795
15:53:26:623,20.661,0.006,0.032,0.033,-10.917,-43.723,-10.854
15:53:26:648,20.686,0.010,0.003,0.028,-10.838,-43.686,-10.895
15:53:26:735,20.773,0.010,-0.017,0.020,-10.800,-43.750,-10.860
15:53:26:748,20.786,0.014,-0.037,-0.008,-10.801,-43.901,-10.937
15:53:26:773,20.810,0.002,-0.001,0.028,-10.764,-43.989,-11.016
15:53:26:798,20.835,-0.020,-0.004,0.016,-10.635,-44.086,-10.892
15:53:26:822,20.860,-0.009,0.007,0.001,-10.547,-44.239,-10.873
15:53:26:847,20.885,-0.020,0.035,0.012,-10.482,-44.297,-10.865
15:53:26:884,20.922,-0.011,0.020,0.001,-10.386,-44.376,-10.768
15:53:26:91,20.948,-0.011,0.056,-0.001,-10.336,-44.444,-10.692
15:53:26:922,20.960,-0.034,0.025,-0.009,-10.274,-44.503,-10.473
15:53:27:123,21.161,0.024,-0.052,0.001,-10.701,-44.326,-9.938
15:53:27:134,21.172,0.031,0.021,0.093,-10.752,-44.243,-10.023
15:53:27:159,21.197,0.007,-0.057,0.021,-10.694,-44.174,-9.779
15:53:27:213,21.251,0.038,-0.037,0.003,-10.724,-44.238,-9.709
15:53:27:214,21.252,0.004,0.001,0.014,-10.717,-44.294,-9.661
15:53:27:235,21.273,-0.014,-0.057,-0.035,-10.664,-44.320,-9.503
15:53:27:272,21.310,0.000,0.058,0.035,-10.606,-44.405,-9.692
15:53:27:425,21.463,-0.016,0.008,0.020,-10.257,-44.710,-9.470
15:53:27:447,21.485,-0.008,0.002,-0.010,-10.242,-44.823,-9.524
15:53:27:523,21.560,-0.012,0.068,0.031,-10.110,-44.917,-9.549
15:53:27:598,21.636,0.005,0.066,0.074,-10.081,-44.905,-9.252
15:53:27:651,21.689,-0.004,0.038,0.007,-9.995,-44.885,-9.103
15:53:27:652,21.690,-0.005,0.022,-0.010,-10.070,-44.925,-8.869
15:53:27:686,21.723,-0.002,0.022,-0.021,-10.161,-44.922,-8.715
15:53:27:698,21.735,-0.012,0.030,0.070,-10.104,-44.783,-8.081
15:53:27:885,21.922,0.009,-0.060,-0.008,-10.615,-45.016,-6.174
15:53:27:972,22.010,-0.032,-0.034,-0.042,-10.700,-45.348,-6.771
15:53:27:997,22.035,-0.021,-0.023,-0.054,-10.660,-45.370,-6.762
15:53:28:01,22.048,-0.021,0.017,-0.015,-10.609,-45.377,-7.023
15:53:28:173,22.210,0.039,0.019,0.042,-10.287,-44.728,-7.492
15:53:28:21,22.248,0.046,-0.033,0.037,-10.278,-44.665,-7.539
15:53:28:323,22.361,-0.011,-0.002,0.000,-10.021,-44.871,-7.686
15:53:28:348,22.386,0.012,0.002,-0.005,-9.985,-44.891,-7.738
15:53:28:385,22.423,0.008,0.036,0.053,-10.019,-44.933,-8.061
15:53:28:435,22.473,0.020,-0.029,0.030,-9.891,-44.957,-8.144
15:53:28:572,22.610,-0.047,0.056,-0.020,-9.384,-45.889,-9.183
15:53:28:584,22.622,-0.051,0.087,-0.003,-9.226,-45.873,-8.994
15:53:28:609,22.647,-0.050,0.102,0.018,-9.131,-45.832,-8.866
15:53:28:635,22.673,-0.022,0.058,0.008,-9.134,-45.741,-8.660
15:53:28:672,22.710,-0.004,0.043,0.013,-9.238,-45.687,-8.564
15:53:28:922,22.960,-0.011,0.020,0.014,-10.090,-45.946,-8.128
15:53:29:011,23.049,-0.011,0.002,-0.021,-9.845,-46.216,-7.984
15:53:29:036,23.074,-0.018,0.025,0.013,-9.795,-46.285,-7.994
15:53:29:088,23.125,-0.006,-0.012,0.005,-9.750,-46.299,-7.911
15:53:29:089,23.126,-0.002,-0.020,-0.032,-9.757,-46.373,-7.990
15:53:29:186,23.224,0.008,0.019,0.047,-9.510,-46.390,-8.087
15:53:29:237,23.275,-0.003,-0.029,0.004,-9.510,-46.402,-7.869
15:53:29:238,23.276,-0.024,0.047,0.021,-9.501,-46.449,-7.839
15:53:29:287,23.325,-0.025,-0.002,-0.006,-9.413,-46.533,-7.780
15:53:29:31,23.348,-0.014,0.005,-0.014,-9.497,-46.546,-7.742
15:53:29:413,23.451,0.002,0.044,0.042,-9.478,-46.462,-7.787
15:53:29:447,23.485,-0.011,-0.012,-0.030,-9.477,-46.422,-7.510
15:53:29:485,23.523,-0.013,0.036,0.010,-9.523,-46.431,-7.590
15:53:29:497,23.535,-0.001,-0.031,0.024,-9.513,-46.364,-7.567
15:53:29:624,23.662,0.018,0.042,0.038,-9.575,-46.260,-7.740
15:53:29:647,23.685,-0.004,-0.001,0.020,-9.563,-46.227,-7.623
15:53:29:672,23.710,-0.007,0.042,0.026,-9.613,-46.231,-7.679
15:53:29:722,23.760,0.008,-0.004,0.018,-9.785,-46.221,-7.653
15:53:29:76,23.798,0.009,0.009,0.023,-9.812,-46.212,-7.665
15:53:29:797,23.835,0.003,0.003,0.001,-9.841,-46.257,-7.666
15:53:29:81,23.848,0.009,-0.012,-0.006,-9.922,-46.278,-7.653
15:53:29:835,23.873,0.019,-0.005,0.029,-10.056,-46.242,-7.668
15:53:29:86,23.897,0.018,-0.023,0.015,-10.094,-46.206,-7.575
15:53:29:885,23.922,0.014,-0.050,-0.016,-10.147,-46.196,-7.608
15:53:29:912,23.950,0.029,-0.015,0.037,-10.184,-46.195,-7.771
15:53:29:935,23.972,0.000,-0.048,0.004,-10.135,-46.113,-7.602
15:53:29:984,24.022,-0.017,0.036,0.039,-9.995,-46.177,-7.767
15:53:30:072,24.110,-0.041,0.040,0.023,-9.814,-45.979,-7.553
15:53:30:123,24.161,0.031,0.077,0.023,-9.890,-45.756,-7.518
15:53:30:148,24.186,0.015,0.033,0.072,-9.848,-45.512,-7.141
15:53:30:173,24.211,-0.009,-0.036,-0.002,-10.060,-45.392,-6.635
15:53:30:198,24.236,0.040,0.006,0.008,-10.273,-45.424,-6.998
15:53:30:223,24.261,-0.001,-0.036,-0.005,-10.343,-45.287,-7.233
15:53:30:249,24.286,0.004,-0.053,-0.005,-10.308,-45.197,-7.075
15:53:30:274,24.311,0.017,-0.031,0.019,-10.315,-45.132,-7.155
15:53:30:297,24.335,0.042,-0.082,0.028,-10.313,-44.986,-7.304
15:53:30:372,24.410,0.016,0.029,0.036,-9.719,-44.388,-6.946
15:53:30:426,24.464,-0.023,0.102,0.034,-9.007,-44.349,-7.177
15:53:30:526,24.564,0.004,0.098,0.058,-8.926,-44.414,-7.153
15:53:30:526,24.564,-0.012,0.082,0.068,-8.880,-44.435,-7.356
15:53:30:535,24.572,-0.011,0.038,0.032,-8.937,-44.477,-7.407
15:53:30:56,24.597,-0.017,0.086,0.057,-9.034,-44.537,-7.526
15:53:30:585,24.623,-0.025,0.042,0.023,-9.172,-44.508,-7.378
15:53:30:61,24.648,-0.016,0.021,-0.015,-9.386,-44.483,-7.192
15:53:30:635,24.673,0.019,0.024,0.039,-9.542,-44.453,-7.345
15:53:30:66,24.698,0.014,-0.041,0.028,-9.788,-44.327,-7.321
15:53:30:686,24.724,0.033,-0.062,-0.025,-9.983,-44.128,-7.115
15:53:30:711,24.749,0.053,-0.059,0.038,-10.243,-44.145,-7.216
15:53:30:736,24.774,0.047,-0.084,0.016,-10.344,-44.091,-7.286
15:53:30:761,24.799,0.012,-0.090,-0.027,-10.388,-44.109,-7.121
15:53:30:798,24.835,0.021,-0.042,0.010,-10.457,-44.223,-7.093
15:53:30:885,24.923,-0.005,0.008,0.000,-10.226,-44.209,-7.042
15:53:30:922,24.960,-0.012,0.020,0.028,-10.016,-44.270,-7.124
15:53:30:948,24.986,-0.002,0.025,0.020,-9.927,-44.279,-7.129
15:53:30:972,25.010,0.021,0.000,0.027,-9.825,-44.233,-7.219
15:53:30:997,25.035,0.011,-0.017,0.025,-9.823,-44.295,-7.340
15:53:31:035,25.073,0.016,-0.005,0.020,-9.846,-44.339,-7.573
15:53:31:048,25.086,0.001,0.021,0.030,-9.736,-44.518,-7.886
15:53:31:16,25.198,-0.075,0.065,-0.025,-9.424,-44.467,-8.024
15:53:31:185,25.223,-0.038,0.084,0.009,-9.456,-44.242,-8.045
15:53:31:264,25.301,0.034,-0.053,0.042,-9.681,-43.791,-7.918
15:53:31:264,25.301,0.020,0.017,0.030,-9.825,-43.727,-7.910
15:53:31:298,25.336,0.026,0.011,0.043,-9.883,-43.633,-7.892
15:53:31:385,25.423,-0.005,-0.052,0.008,-10.225,-43.621,-8.186
15:53:31:411,25.448,0.005,0.006,0.015,-10.232,-43.755,-8.344
15:53:31:435,25.473,0.007,0.020,0.029,-10.163,-43.931,-8.540
15:53:31:472,25.510,-0.028,0.010,-0.004,-10.103,-43.984,-8.461
15:53:31:552,25.590,-0.008,-0.020,-0.005,-10.072,-43.802,-8.730
15:53:31:573,25.611,0.008,0.011,0.035,-10.032,-43.788,-8.747
15:53:31:61,25.647,0.026,-0.001,0.044,-9.925,-43.544,-8.811
15:53:31:65,25.688,0.016,0.006,0.020,-9.897,-43.477,-8.818
15:53:31:726,25.764,-0.001,0.003,0.000,-9.760,-43.620,-8.503
15:53:31:726,25.764,-0.008,0.057,0.014,-9.726,-43.942,-8.676
15:53:31:776,25.813,-0.069,0.040,-0.033,-9.711,-43.998,-8.456
15:53:31:776,25.813,-0.059,0.005,-0.056,-9.776,-43.924,-8.257
15:53:31:809,25.847,-0.006,0.017,0.045,-9.879,-43.911,-8.563
15:53:31:834,25.872,-0.013,-0.005,-0.012,-9.904,-43.789,-8.528
15:53:31:872,25.910,0.008,-0.007,0.024,-9.927,-43.682,-8.364
15:53:31:985,26.023,0.029,0.020,0.032,-9.985,-43.425,-8.332
15:53:32:01,26.048,0.010,0.018,0.025,-10.024,-43.410,-8.425
15:53:32:048,26.086,0.022,-0.026,0.007,-10.025,-43.360,-8.212
15:53:32:114,26.152,0.003,-0.020,-0.002,-10.190,-43.630,-8.192
15:53:32:147,26.185,0.003,-0.006,0.011,-10.198,-43.702,-8.123
15:53:32:197,26.235,-0.001,-0.023,-0.010,-10.190,-43.788,-8.083
15:53:32:222,26.260,-0.013,0.028,0.007,-10.185,-43.857,-8.089
15:53:32:348,26.386,0.020,0.007,0.039,-10.242,-43.534,-8.262
15:53:32:538,26.576,-0.032,0.030,-0.005,-10.006,-43.428,-8.101
15:53:32:538,26.576,-0.025,0.034,-0.018,-9.981,-43.413,-8.012
15:53:32:572,26.610,-0.038,0.113,0.015,-10.045,-43.396,-8.249
15:53:32:586,26.624,-0.037,0.053,0.008,-10.075,-43.302,-8.289
15:53:32:612,26.650,0.011,-0.044,-0.009,-10.239,-43.084,-7.983
15:53:32:648,26.685,0.037,-0.018,0.030,-10.524,-42.979,-8.085
15:53:32:66,26.697,0.050,-0.051,0.043,-10.596,-42.949,-8.242
15:53:32:762,26.800,0.003,0.001,0.003,-10.403,-43.199,-8.034
15:53:32:797,26.835,0.006,0.033,0.014,-10.300,-43.271,-8.024
15:53:32:822,26.860,-0.015,0.058,0.040,-10.174,-43.352,-8.031
15:53:32:848,26.885,0.007,0.022,0.045,-10.127,-43.361,-7.903
15:53:32:872,26.910,-0.017,0.062,0.027,-10.060,-43.421,-7.788
15:53:32:91,26.948,-0.010,0.067,0.033,-10.064,-43.546,-7.871
15:53:33:023,27.061,0.004,-0.059,-0.010,-10.459,-43.730,-7.648
15:53:33:06,27.098,0.011,-0.038,-0.004,-10.552,-43.775,-7.762
15:53:33:074,27.112,-0.015,-0.022,0.003,-10.531,-43.785,-7.608
15:53:33:11,27.148,-0.023,-0.027,-0.030,-10.514,-43.779,-7.553
15:53:33:124,27.162,-0.010,0.005,0.002,-10.536,-43.775,-7.744
15:53:33:173,27.211,-0.027,-0.011,-0.006,-10.517,-43.729,-7.747
15:53:33:184,27.222,-0.011,-0.023,-0.001,-10.479,-43.632,-7.630
15:53:33:222,27.260,0.006,0.003,-0.002,-10.414,-43.542,-7.731
15:53:33:26,27.298,-0.001,-0.009,0.020,-10.227,-43.332,-7.666
15:53:33:325,27.363,-0.008,0.021,-0.002,-10.219,-43.258,-7.682
15:53:33:326,27.364,0.020,0.007,0.023,-10.195,-43.164,-7.827
15:53:33:335,27.373,-0.010,0.028,0.014,-10.140,-43.053,-7.848
15:53:33:388,27.426,0.013,0.024,0.021,-10.126,-42.974,-7.889
15:53:33:388,27.426,0.008,-0.010,0.023,-10.130,-42.854,-7.963
15:53:33:41,27.448,0.029,-0.003,0.036,-10.151,-42.785,-7.975
15:53:33:46,27.498,0.004,0.002,0.020,-10.152,-42.723,-7.993
15:53:33:473,27.511,0.021,0.000,0.030,-10.114,-42.664,-8.080
15:53:33:535,27.573,0.007,0.018,0.021,-10.105,-42.579,-8.258
15:53:33:548,27.586,0.011,0.002,0.033,-10.077,-42.511,-8.296
15:53:33:61,27.648,0.019,0.014,0.024,-10.022,-42.475,-8.534
15:53:33:623,27.661,0.020,-0.009,0.018,-10.022,-42.445,-8.559
15:53:33:66,27.698,0.014,-0.023,0.021,-10.010,-42.422,-8.572
15:53:33:672,27.710,0.010,-0.012,0.012,-9.976,-42.456,-8.645
15:53:33:697,27.735,-0.001,-0.017,0.006,-9.874,-42.482,-8.667
15:53:33:785,27.823,0.018,0.003,0.022,-9.680,-42.422,-8.693
15:53:33:835,27.873,0.018,-0.001,0.015,-9.598,-42.419,-8.663
15:53:33:86,27.898,0.007,0.006,0.020,-9.579,-42.461,-8.784
15:53:33:935,27.973,0.003,0.008,0.021,-9.477,-42.658,-8.835
15:53:33:96,27.998,0.005,0.001,0.005,-9.453,-42.775,-8.785
15:53:34:11,28.148,-0.003,0.032,-0.004,-9.305,-43.006,-8.701
15:53:34:124,28.162,0.010,0.056,0.027,-9.238,-43.017,-8.703
15:53:34:149,28.187,0.013,0.008,0.024,-9.192,-43.028,-8.506
15:53:34:185,28.222,-0.002,0.036,0.026,-9.190,-43.054,-8.460
15:53:34:199,28.236,-0.009,0.032,0.033,-9.211,-43.166,-8.461
15:53:34:222,28.260,-0.017,0.026,-0.010,-9.212,-43.289,-8.416
15:53:34:322,28.360,-0.015,-0.019,0.011,-9.430,-43.426,-8.392
15:53:34:4,28.438,0.008,-0.007,0.016,-9.544,-43.361,-8.565
15:53:34:435,28.473,0.018,-0.031,0.023,-9.574,-43.339,-8.638
15:53:34:461,28.499,0.029,-0.051,-0.008,-9.602,-43.355,-8.611
15:53:34:472,28.510,0.024,-0.048,-0.013,-9.643,-43.403,-8.676
15:53:34:511,28.549,0.028,-0.045,0.012,-9.650,-43.465,-8.971
15:53:34:536,28.574,0.003,0.001,0.013,-9.452,-43.483,-8.918
15:53:34:573,28.611,-0.014,0.001,-0.026,-9.348,-43.544,-8.856
15:53:34:585,28.623,-0.031,0.061,0.026,-9.237,-43.615,-9.058
15:53:34:61,28.648,-0.016,0.026,0.021,-9.143,-43.589,-9.058
15:53:34:736,28.774,-0.011,0.030,0.013,-8.947,-43.448,-9.051
15:53:34:76,28.798,0.009,0.007,0.003,-9.012,-43.437,-9.080
15:53:34:773,28.811,0.010,0.000,0.021,-9.131,-43.409,-9.218
15:53:34:81,28.848,0.012,-0.040,0.008,-9.195,-43.355,-9.149
15:53:34:822,28.860,0.001,0.000,0.012,-9.292,-43.323,-9.066
15:53:34:885,28.923,0.003,-0.011,0.008,-9.296,-43.280,-9.190
15:53:34:899,28.937,-0.007,0.014,0.010,-9.316,-43.242,-9.176
15:53:34:924,28.961,-0.010,0.025,0.013,-9.333,-43.204,-9.156
15:53:34:96,28.998,0.002,0.000,0.008,-9.346,-43.126,-9.170
15:53:34:973,29.011,0.021,-0.017,0.005,-9.419,-43.078,-9.297
15:53:35:11,29.148,0.021,0.027,0.046,-9.325,-42.867,-9.383
15:53:35:122,29.160,0.002,0.024,0.021,-9.270,-42.874,-9.273
15:53:35:148,29.186,0.005,0.009,0.016,-9.254,-42.922,-9.223
15:53:35:185,29.222,-0.008,0.030,0.028,-9.230,-42.932,-9.201
15:53:35:31,29.348,-0.014,-0.014,-0.020,-9.313,-43.069,-8.986
15:53:35:424,29.462,-0.022,-0.016,-0.018,-9.248,-43.019,-8.638
15:53:35:435,29.473,-0.008,-0.006,-0.007,-9.215,-42.917,-8.603
15:53:35:46,29.497,0.004,-0.006,0.020,-9.113,-42.727,-8.521
15:53:35:498,29.536,0.010,0.012,0.026,-9.036,-42.627,-8.473
15:53:35:535,29.573,0.012,0.022,0.040,-8.953,-42.522,-8.518
15:53:35:576,29.614,0.009,0.013,0.036,-8.913,-42.455,-8.567
15:53:35:576,29.614,0.010,0.011,0.005,-8.895,-42.371,-8.563
15:53:35:66,29.698,0.042,-0.009,0.031,-8.931,-42.337,-9.605
15:53:35:674,29.712,-0.003,0.020,0.033,-8.934,-42.346,-9.413
15:53:35:698,29.736,-0.004,0.023,0.030,-8.954,-42.412,-9.280
15:53:35:748,29.786,0.005,0.001,0.008,-8.936,-42.466,-9.261
15:53:35:773,29.811,-0.026,0.010,0.004,-8.915,-42.528,-8.945
15:53:35:823,29.860,-0.002,-0.004,-0.008,-8.902,-42.530,-8.897
15:53:35:922,29.960,0.016,-0.021,0.010,-8.887,-42.336,-8.499
15:53:35:935,29.973,0.023,-0.009,0.007,-8.938,-42.351,-8.616
15:53:35:96,29.998,0.007,-0.003,0.018,-9.028,-42.398,-8.655
15:53:35:985,30.023,0.003,-0.028,0.022,-9.032,-42.373,-8.563
15:53:36:011,30.049,0.005,-0.036,-0.015,-9.056,-42.405,-8.682
15:53:36:036,30.074,0.009,-0.010,0.009,-9.045,-42.442,-8.861
15:53:36:061,30.099,0.002,-0.037,-0.010,-9.001,-42.404,-8.750
15:53:36:086,30.123,0.001,-0.007,0.008,-8.978,-42.402,-8.804
15:53:36:123,30.160,0.017,0.007,0.018,-8.918,-42.393,-8.897
15:53:36:203,30.241,0.001,-0.003,-0.016,-8.769,-42.332,-8.743
15:53:36:204,30.242,0.015,0.031,0.019,-8.691,-42.325,-8.758
15:53:36:204,30.242,-0.001,0.047,0.019,-8.636,-42.330,-8.718
15:53:36:276,30.314,0.001,0.036,0.022,-8.608,-42.415,-8.702
15:53:36:325,30.363,-0.006,0.006,0.002,-8.685,-42.505,-8.645
15:53:36:326,30.364,-0.004,-0.001,0.000,-8.780,-42.576,-8.689
15:53:36:585,30.623,0.002,0.041,0.023,-8.738,-42.860,-9.160
15:53:36:622,30.660,-0.021,0.048,0.025,-8.607,-42.999,-9.458
15:53:36:649,30.687,-0.014,0.030,0.007,-8.610,-43.135,-9.658
15:53:36:66,30.698,-0.035,0.034,0.001,-8.654,-43.261,-9.690
15:53:36:685,30.723,-0.028,0.070,0.010,-8.638,-43.280,-9.595
15:53:36:738,30.776,-0.018,0.000,-0.017,-8.673,-43.281,-9.535
15:53:36:738,30.776,-0.010,0.035,0.022,-8.772,-43.226,-9.637
15:53:36:815,30.853,0.027,-0.026,0.035,-8.942,-43.149,-9.588
15:53:36:848,30.885,0.047,-0.025,0.045,-9.068,-43.132,-9.655
15:53:36:901,30.939,0.057,-0.045,0.037,-9.132,-43.408,-9.917
15:53:36:922,30.960,0.019,-0.019,0.018,-9.106,-43.640,-10.072
15:53:36:96,30.998,-0.015,-0.013,-0.010,-9.044,-43.785,-9.912
15:53:37:035,31.073,-0.062,0.015,-0.042,-8.855,-44.293,-9.697
15:53:37:048,31.086,-0.068,0.052,-0.023,-8.858,-44.387,-9.662
15:53:37:113,31.151,-0.068,0.051,-0.027,-8.848,-44.386,-9.658
15:53:37:113,31.151,-0.058,0.027,-0.027,-8.803,-44.331,-9.401
15:53:37:123,31.161,-0.036,-0.020,-0.010,-8.882,-44.288,-9.417
15:53:37:16,31.198,-0.012,0.004,0.019,-9.069,-44.238,-9.829
15:53:37:197,31.235,0.006,-0.051,-0.014,-9.165,-44.140,-10.034
15:53:37:348,31.386,-0.006,0.019,-0.005,-9.083,-43.859,-11.129
15:53:37:36,31.397,-0.012,0.001,0.011,-9.129,-43.793,-11.182
15:53:37:385,31.422,0.000,0.038,0.014,-9.145,-43.767,-11.208
15:53:37:422,31.460,0.004,0.013,0.012,-9.148,-43.709,-11.179
15:53:37:435,31.473,-0.008,0.012,0.010,-9.195,-43.673,-11.208
15:53:37:46,31.498,0.007,0.002,0.023,-9.324,-43.643,-11.366
15:53:37:51,31.548,0.015,-0.025,-0.010,-9.461,-43.645,-11.482
15:53:37:54,31.578,0.011,-0.063,-0.017,-9.569,-43.678,-11.623
15:53:37:54,31.578,0.016,-0.053,-0.008,-9.685,-43.727,-11.932
15:53:37:586,31.624,0.002,-0.067,-0.016,-9.668,-43.710,-12.001
15:53:37:626,31.664,-0.004,-0.058,0.001,-9.569,-43.690,-11.925
15:53:37:626,31.664,0.004,0.024,0.033,-9.396,-43.672,-12.095
15:53:37:661,31.698,-0.007,0.012,0.015,-9.271,-43.637,-12.037
15:53:37:673,31.710,-0.009,0.002,0.008,-9.207,-43.648,-11.908
15:53:37:71,31.748,-0.013,0.026,0.015,-9.181,-43.677,-11.979
15:53:37:747,31.785,0.002,0.038,0.025,-8.943,-43.731,-11.985
15:53:37:772,31.810,-0.010,0.019,0.013,-8.959,-43.779,-11.955
15:53:37:812,31.850,-0.017,0.011,-0.009,-9.037,-43.871,-11.927
15:53:37:822,31.860,-0.015,-0.020,-0.011,-9.070,-43.925,-11.882
15:53:37:86,31.898,-0.009,-0.023,-0.018,-9.087,-43.979,-11.850
15:53:37:985,32.022,0.008,-0.032,0.000,-9.051,-44.064,-11.900
15:53:38:088,32.126,-0.014,-0.003,0.004,-8.797,-44.115,-12.007
15:53:38:088,32.126,-0.019,0.026,-0.013,-8.699,-44.144,-11.852
15:53:38:123,32.161,-0.024,0.064,-0.006,-8.608,-44.180,-11.880
15:53:38:135,32.173,-0.022,0.075,0.025,-8.539,-44.152,-11.924
15:53:38:198,32.236,-0.012,0.048,0.011,-8.506,-44.048,-11.677
15:53:38:223,32.261,0.009,0.011,0.043,-8.602,-43.959,-11.642
15:53:38:235,32.273,0.025,-0.010,0.029,-8.768,-43.910,-11.562
15:53:38:31,32.348,0.074,-0.127,0.020,-9.041,-43.930,-11.545
15:53:38:322,32.360,0.046,-0.073,-0.008,-9.097,-44.003,-11.543
15:53:38:385,32.423,-0.014,0.000,-0.011,-8.757,-44.361,-11.829
15:53:38:426,32.463,-0.021,0.038,-0.014,-8.616,-44.435,-11.753
15:53:38:427,32.464,-0.026,0.065,0.004,-8.468,-44.490,-11.617
15:53:38:476,32.514,-0.038,0.055,0.008,-8.328,-44.549,-11.447
15:53:38:61,32.648,0.013,0.000,0.033,-8.553,-44.378,-11.021
15:53:38:635,32.673,0.017,-0.034,0.007,-8.645,-44.337,-10.947
15:53:38:661,32.699,0.027,-0.064,-0.009,-8.805,-44.343,-10.905
15:53:38:697,32.735,0.032,-0.063,0.013,-8.963,-44.381,-11.072
15:53:38:711,32.749,0.012,-0.049,-0.021,-8.998,-44.374,-10.997
15:53:38:736,32.774,0.007,-0.027,-0.018,-8.977,-44.449,-10.878
15:53:38:773,32.811,0.030,-0.037,0.027,-8.873,-44.497,-10.926
15:53:38:786,32.824,0.027,-0.041,-0.002,-8.800,-44.467,-10.825
15:53:38:812,32.850,0.032,-0.023,0.023,-8.752,-44.512,-10.758
15:53:38:86,32.897,0.005,0.008,0.039,-8.633,-44.552,-10.673
15:53:38:889,32.926,0.023,-0.008,0.017,-8.390,-44.683,-10.342
15:53:38:963,33.001,-0.019,0.040,-0.003,-8.077,-45.003,-10.298
15:53:38:972,33.010,-0.015,0.020,-0.011,-7.991,-45.112,-10.199
15:53:39:038,33.076,-0.019,0.051,-0.003,-7.972,-45.250,-10.241
15:53:39:038,33.076,-0.022,0.041,0.004,-7.938,-45.305,-10.269
15:53:39:048,33.086,-0.024,0.022,-0.009,-7.876,-45.350,-10.107
15:53:39:113,33.151,-0.006,0.019,-0.010,-7.964,-45.413,-10.130
15:53:39:114,33.152,-0.005,0.018,0.031,-8.022,-45.419,-10.153
15:53:39:123,33.161,0.005,-0.012,0.003,-8.019,-45.385,-9.969
15:53:39:16,33.197,0.012,-0.021,0.008,-8.061,-45.437,-9.981
15:53:39:186,33.223,0.016,-0.019,0.036,-8.139,-45.527,-10.077
15:53:39:198,33.236,0.013,0.001,0.014,-8.057,-45.531,-9.863
15:53:39:263,33.301,0.012,-0.021,0.004,-8.043,-45.604,-9.797
15:53:39:263,33.301,0.005,-0.018,0.008,-8.109,-45.750,-9.904
15:53:39:285,33.323,0.011,-0.001,0.005,-8.136,-45.832,-9.874
15:53:39:35,33.388,-0.008,-0.010,-0.008,-8.153,-45.916,-9.655
15:53:39:351,33.389,-0.029,-0.008,-0.011,-8.124,-46.016,-9.702
15:53:39:36,33.398,-0.016,0.015,0.003,-8.088,-46.076,-9.793
15:53:39:426,33.464,-0.027,0.018,-0.003,-8.044,-46.125,-9.818
15:53:39:426,33.464,-0.036,0.001,-0.011,-8.026,-46.135,-9.795
15:53:39:435,33.473,-0.030,0.025,-0.002,-7.944,-46.133,-9.736
15:53:39:488,33.525,-0.014,-0.003,0.004,-7.839,-46.018,-9.621
15:53:39:488,33.526,-0.012,0.008,-0.006,-7.830,-45.965,-9.666
15:53:39:563,33.601,0.005,0.010,0.013,-7.852,-45.770,-9.694
15:53:39:563,33.601,0.015,0.032,0.022,-7.855,-45.645,-9.766
15:53:39:597,33.635,0.019,0.043,0.026,-7.853,-45.559,-9.816
15:53:39:8,33.838,0.000,0.004,0.013,-8.093,-45.545,-9.887
15:53:39:801,33.839,-0.015,-0.014,-0.013,-8.059,-45.571,-9.791
15:53:39:822,33.860,-0.008,-0.010,-0.023,-8.070,-45.594,-9.809
15:53:39:873,33.911,0.006,0.013,0.007,-8.064,-45.578,-9.867
15:53:39:885,33.923,0.000,0.010,0.013,-8.009,-45.519,-9.829
15:53:40:038,34.076,-0.021,-0.001,-0.001,-8.018,-45.575,-9.785
15:53:40:038,34.076,-0.027,0.022,-0.019,-7.954,-45.563,-9.766
15:53:40:06,34.098,-0.022,0.012,-0.014,-7.917,-45.536,-9.744
15:53:40:128,34.166,-0.006,0.019,0.009,-7.949,-45.317,-9.598
15:53:40:135,34.173,0.012,0.023,0.014,-7.966,-45.228,-9.726
15:53:40:189,34.226,0.018,0.000,0.011,-8.067,-45.042,-9.605
15:53:40:211,34.248,0.033,-0.030,0.014,-8.192,-44.956,-9.680
15:53:40:5,34.538,-0.002,0.004,0.018,-8.212,-44.907,-9.720
15:53:40:501,34.539,-0.007,0.006,0.021,-8.209,-44.898,-9.767
15:53:40:578,34.616,0.005,-0.007,0.008,-8.238,-44.909,-9.879
15:53:40:598,34.635,0.002,0.016,0.008,-8.226,-44.917,-9.868
15:53:40:647,34.685,0.000,0.000,0.000,-8.199,-44.884,-9.749
15:53:40:662,34.700,0.012,-0.014,0.002,-8.214,-44.890,-9.813
15:53:40:726,34.764,0.012,-0.020,0.018,-8.243,-44.927,-9.969
15:53:40:726,34.764,0.010,0.002,-0.001,-8.187,-44.936,-9.861
15:53:40:735,34.773,0.004,-0.004,0.011,-8.154,-44.961,-9.866
15:53:40:801,34.838,0.011,0.004,0.018,-8.099,-45.004,-10.041
15:53:40:801,34.838,0.001,0.018,0.010,-8.077,-45.026,-10.073
15:53:40:81,34.847,0.000,0.009,0.009,-8.032,-45.084,-10.059
15:53:40:89,34.928,-0.002,0.004,0.005,-7.991,-45.114,-10.098
15:53:40:891,34.929,-0.004,0.012,0.007,-7.970,-45.117,-10.083
15:53:40:892,34.930,-0.001,0.019,0.002,-7.936,-45.127,-10.074
15:53:41:101,35.138,0.010,-0.022,0.006,-7.933,-45.203,-10.065
15:53:41:101,35.138,0.009,-0.003,0.016,-7.911,-45.220,-10.081
15:53:41:123,35.160,0.002,-0.008,0.012,-7.862,-45.262,-10.031
15:53:41:188,35.226,-0.003,0.002,-0.002,-7.859,-45.331,-10.006
15:53:41:189,35.227,0.000,0.007,0.013,-7.874,-45.369,-10.030
15:53:41:197,35.235,0.005,0.001,0.009,-7.818,-45.387,-10.021
15:53:41:251,35.289,0.001,0.005,0.002,-7.762,-45.423,-9.990
15:53:41:251,35.289,0.006,0.005,-0.013,-7.750,-45.539,-9.968
15:53:41:273,35.311,-0.011,0.015,0.007,-7.736,-45.571,-9.880
15:53:41:338,35.376,-0.018,0.036,0.024,-7.651,-45.588,-9.791
15:53:41:339,35.377,-0.014,0.069,0.015,-7.555,-45.652,-9.853
15:53:41:438,35.475,-0.006,-0.022,0.002,-7.912,-45.602,-9.581
15:53:41:472,35.510,-0.003,0.007,-0.004,-8.034,-45.592,-9.445
15:53:41:485,35.523,-0.015,-0.044,-0.022,-8.128,-45.526,-9.246
15:53:41:635,35.673,0.006,-0.027,0.005,-8.297,-45.290,-9.385
15:53:41:648,35.686,0.009,-0.025,-0.017,-8.281,-45.226,-9.247
15:53:41:673,35.711,-0.004,0.038,0.031,-8.277,-45.245,-9.387
15:53:41:697,35.735,-0.008,0.020,0.042,-8.227,-45.187,-9.325
15:53:41:747,35.785,-0.013,-0.005,-0.008,-8.316,-45.142,-9.244
15:53:41:799,35.837,-0.004,0.024,0.036,-8.300,-45.037,-9.354
15:53:41:81,35.848,-0.012,0.007,-0.006,-8.271,-44.961,-9.223
15:53:41:825,35.863,0.002,-0.003,-0.004,-8.341,-44.953,-9.294
15:53:41:875,35.912,-0.008,-0.022,0.030,-8.396,-44.847,-9.391
15:53:41:885,35.922,-0.004,-0.049,0.003,-8.407,-44.768,-9.282
15:53:41:898,35.935,-0.003,-0.033,0.004,-8.425,-44.728,-9.299
15:53:42:023,36.061,0.024,0.018,0.029,-8.012,-44.415,-9.226
15:53:42:036,36.074,0.008,0.015,0.015,-8.028,-44.372,-9.152
15:53:42:061,36.099,0.008,0.033,-0.003,-8.044,-44.385,-9.168
15:53:42:113,36.151,-0.003,0.000,-0.004,-8.058,-44.342,-9.055
15:53:42:113,36.151,-0.010,0.002,0.006,-8.076,-44.286,-8.935
15:53:42:275,36.313,0.005,0.000,0.009,-8.291,-44.078,-8.918
15:53:42:276,36.314,0.002,-0.005,0.005,-8.274,-43.991,-9.005
15:53:42:299,36.337,0.004,0.001,0.041,-8.291,-43.902,-9.117
15:53:42:335,36.373,0.010,0.002,0.021,-8.305,-43.824,-8.961
15:53:42:349,36.386,0.022,-0.002,0.011,-8.333,-43.823,-8.988
15:53:42:374,36.411,0.010,-0.017,0.028,-8.329,-43.837,-9.220
15:53:42:41,36.448,-0.002,-0.004,0.017,-8.299,-43.838,-9.239
15:53:42:422,36.460,0.000,-0.012,-0.019,-8.329,-43.907,-9.132
15:53:42:485,36.523,-0.003,-0.026,0.012,-8.314,-43.948,-9.314
15:53:42:497,36.535,-0.006,-0.015,-0.016,-8.265,-43.982,-9.247
15:53:42:522,36.560,-0.016,0.009,0.008,-8.242,-44.048,-9.369
15:53:42:585,36.623,-0.006,-0.041,-0.012,-8.249,-44.034,-9.336
15:53:42:598,36.636,0.012,0.014,0.012,-8.257,-43.991,-9.435
15:53:42:726,36.764,0.025,0.046,0.065,-8.009,-43.824,-9.594
15:53:42:735,36.773,-0.010,0.043,-0.001,-8.063,-43.767,-9.574
15:53:42:761,36.799,0.013,0.039,0.019,-8.110,-43.775,-9.540
15:53:42:813,36.851,0.007,-0.026,0.018,-8.148,-43.796,-9.516
15:53:42:813,36.851,0.013,-0.023,0.007,-8.151,-43.802,-9.592
15:53:42:836,36.874,0.000,-0.037,-0.006,-8.155,-43.844,-9.658
15:53:42:888,36.926,-0.002,-0.014,0.001,-8.142,-43.922,-9.645
15:53:42:889,36.927,-0.004,-0.021,-0.014,-8.118,-43.984,-9.645
15:53:42:964,37.001,-0.013,0.009,0.009,-7.939,-44.071,-9.668
15:53:43:053,37.091,-0.026,-0.008,-0.004,-7.900,-44.077,-9.545
15:53:43:054,37.092,0.009,0.016,0.020,-7.867,-44.074,-9.627
15:53:43:054,37.092,0.003,-0.001,0.009,-7.726,-43.956,-9.511
15:53:43:128,37.166,-0.003,-0.022,0.002,-7.561,-43.852,-9.442
15:53:43:129,37.167,0.062,0.018,0.068,-7.350,-43.763,-9.545
15:53:43:13,37.168,-0.005,0.023,0.011,-7.306,-43.753,-9.463
15:53:43:224,37.262,0.005,0.026,0.012,-7.315,-43.974,-9.115
15:53:43:249,37.286,-0.002,0.026,0.016,-7.376,-44.004,-9.106
15:53:43:285,37.323,0.009,-0.015,0.009,-7.451,-43.992,-8.876
15:53:43:297,37.335,0.016,-0.019,0.007,-7.497,-44.029,-8.833
15:53:43:441,37.479,-0.003,-0.038,-0.010,-7.562,-44.188,-8.733
15:53:43:441,37.479,0.010,0.002,0.002,-7.592,-44.309,-8.947
15:53:43:442,37.480,-0.009,0.007,0.010,-7.553,-44.340,-9.008
15:53:43:522,37.560,-0.003,0.020,0.002,-7.399,-44.559,-9.317
15:53:43:563,37.601,-0.031,0.000,-0.019,-7.370,-44.638,-9.303
15:53:43:563,37.601,-0.032,0.038,-0.006,-7.344,-44.677,-9.321
15:53:43:597,37.635,-0.013,0.019,0.004,-7.308,-44.683,-9.497
15:53:43:676,37.714,0.013,-0.024,0.011,-7.371,-44.604,-9.658
15:53:43:764,37.802,-0.006,0.005,0.013,-7.348,-44.592,-9.953
15:53:43:785,37.823,-0.027,0.004,-0.010,-7.364,-44.599,-9.884
15:53:43:838,37.876,-0.080,0.112,-0.059,-7.346,-44.608,-9.961
15:53:43:838,37.876,-0.100,0.105,-0.039,-7.291,-44.523,-10.086
15:53:43:938,37.976,0.044,-0.055,0.033,-7.837,-43.390,-9.877
15:53:43:951,37.989,0.059,-0.004,0.031,-7.877,-43.287,-9.941
15:53:44:027,38.064,0.045,-0.044,0.042,-7.956,-43.125,-9.901
15:53:44:028,38.065,0.029,-0.070,0.018,-8.020,-43.064,-9.747
15:53:44:038,38.075,0.039,0.001,0.020,-8.036,-43.049,-9.718
15:53:44:101,38.139,0.031,-0.051,0.018,-7.921,-42.956,-9.583
15:53:44:101,38.139,0.023,-0.026,0.011,-7.938,-42.954,-9.623
15:53:44:123,38.160,0.023,0.022,0.016,-7.949,-43.075,-9.775
15:53:44:148,38.185,0.004,-0.027,-0.005,-7.926,-43.110,-9.713
15:53:44:172,38.210,0.003,0.027,-0.001,-7.896,-43.203,-9.691
15:53:44:185,38.223,0.000,0.027,0.011,-7.839,-43.267,-9.735
15:53:44:222,38.260,-0.002,0.015,0.001,-7.774,-43.294,-9.667
15:53:44:248,38.286,0.011,0.012,0.013,-7.853,-43.342,-9.696
15:53:44:26,38.298,0.004,0.048,0.042,-7.855,-43.352,-9.680
15:53:44:31,38.348,0.024,-0.009,-0.002,-7.817,-43.355,-9.380
15:53:44:485,38.523,0.027,-0.007,0.020,-7.454,-43.744,-8.768
15:53:44:524,38.562,0.014,0.008,0.028,-7.408,-43.946,-8.719
15:53:44:564,38.602,0.009,-0.014,0.027,-7.352,-44.084,-8.752
15:53:44:564,38.602,0.010,-0.004,-0.005,-7.375,-44.377,-8.856
15:53:44:573,38.611,-0.028,-0.003,-0.009,-7.388,-44.582,-8.890
15:53:44:688,38.726,0.001,-0.007,-0.001,-7.257,-45.047,-9.122
15:53:44:689,38.727,-0.001,-0.007,-0.003,-7.231,-45.139,-9.146
15:53:44:76,38.798,-0.034,-0.011,-0.056,-7.041,-45.109,-8.679
15:53:44:797,38.835,0.023,-0.006,0.026,-6.976,-44.792,-8.346
15:53:44:838,38.876,0.018,-0.001,0.029,-6.850,-44.424,-7.895
15:53:44:838,38.876,0.048,0.004,0.067,-6.823,-44.346,-7.709
15:53:44:872,38.910,0.033,0.014,0.053,-6.806,-44.302,-7.679
15:53:44:913,38.951,0.023,0.011,0.049,-6.774,-44.318,-7.707
15:53:44:914,38.952,0.016,0.015,0.031,-6.630,-44.462,-7.945
15:53:44:949,38.987,-0.003,0.038,0.012,-6.602,-44.663,-8.135
15:53:44:989,39.027,-0.008,0.018,0.002,-6.650,-44.766,-8.204
15:53:44:989,39.027,-0.009,0.037,0.024,-6.713,-44.921,-8.312
15:53:45:062,39.100,0.001,-0.011,-0.001,-6.701,-44.998,-8.354
15:53:45:063,39.101,0.010,-0.024,0.004,-6.750,-45.163,-8.583
15:53:45:072,39.110,0.004,0.016,0.010,-6.799,-45.286,-8.767
15:53:45:126,39.164,-0.018,-0.018,-0.025,-6.858,-45.533,-8.620
15:53:45:147,39.185,-0.023,0.008,-0.023,-6.900,-45.651,-8.892
15:53:45:173,39.211,-0.067,0.017,-0.045,-6.880,-45.706,-8.953
15:53:45:198,39.236,-0.047,-0.036,-0.057,-6.887,-45.659,-8.674
15:53:45:364,39.402,0.001,0.024,0.041,-6.625,-44.668,-8.187
15:53:45:364,39.402,-0.020,0.045,0.002,-6.610,-44.414,-8.031
15:53:45:373,39.411,0.015,0.030,0.069,-6.631,-44.291,-8.072
15:53:45:398,39.436,0.010,-0.003,0.047,-6.680,-44.051,-8.113
15:53:45:448,39.485,0.032,-0.025,0.016,-6.885,-43.934,-7.888
15:53:45:46,39.498,0.039,0.001,0.035,-6.984,-43.921,-7.979
15:53:45:61,39.648,-0.054,0.036,-0.006,-7.056,-43.268,-8.292
15:53:45:685,39.723,-0.008,-0.005,0.014,-7.046,-42.704,-7.964
15:53:45:71,39.748,0.025,-0.003,0.042,-7.042,-42.301,-8.009
15:53:45:748,39.786,0.035,-0.053,0.012,-7.056,-42.251,-7.945
15:53:45:901,39.939,-0.015,0.029,0.035,-6.657,-42.278,-8.425
15:53:45:901,39.939,-0.015,0.025,0.017,-6.631,-42.377,-8.394
15:53:45:935,39.973,-0.030,0.044,-0.025,-6.683,-42.563,-8.475
15:53:45:988,40.026,-0.057,0.040,-0.023,-6.705,-42.597,-8.321
15:53:45:997,40.035,-0.044,0.028,-0.026,-6.811,-42.631,-8.546
15:53:46:064,40.102,-0.009,0.019,-0.002,-6.913,-42.597,-8.797
15:53:46:064,40.102,-0.035,0.008,-0.025,-7.033,-42.478,-8.731
15:53:46:098,40.135,-0.027,-0.011,-0.021,-7.114,-42.414,-8.701
15:53:46:11,40.148,-0.002,-0.013,-0.004,-7.229,-42.302,-8.912
15:53:46:172,40.210,0.012,-0.037,-0.005,-7.443,-41.932,-9.024
15:53:46:275,40.313,0.019,0.003,0.012,-7.467,-41.611,-9.346
15:53:46:276,40.314,0.012,0.035,0.026,-7.436,-41.551,-9.344
15:53:46:374,40.411,-0.034,-0.019,-0.044,-7.376,-41.238,-8.686
15:53:46:386,40.423,-0.035,0.016,0.000,-7.459,-41.185,-8.771
15:53:46:423,40.461,-0.025,0.028,0.011,-7.525,-40.896,-8.764
15:53:46:435,40.473,-0.001,-0.038,-0.022,-7.501,-40.614,-8.700
15:53:46:473,40.511,0.049,-0.005,0.012,-7.537,-40.514,-8.910
15:53:46:497,40.535,0.052,-0.015,0.046,-7.548,-40.270,-8.998
15:53:46:549,40.587,0.047,0.003,0.031,-7.613,-39.992,-9.310
15:53:46:585,40.623,0.058,0.005,0.053,-7.594,-40.218,-9.581
15:53:46:61,40.648,0.051,-0.029,0.036,-7.545,-40.178,-9.752
15:53:46:635,40.673,0.019,0.033,0.025,-7.495,-40.456,-9.814
15:53:46:648,40.686,-0.001,0.022,0.020,-7.419,-40.501,-9.727
15:53:46:726,40.764,-0.021,0.006,0.010,-7.339,-40.747,-9.931
15:53:46:948,40.986,-0.013,0.037,0.013,-6.974,-40.518,-9.844
15:53:46:96,40.998,-0.013,0.046,0.024,-6.930,-40.507,-9.777
15:53:47:035,41.073,0.006,0.006,0.019,-7.066,-40.503,-9.887
15:53:47:062,41.100,0.020,-0.034,0.002,-7.065,-40.604,-9.801
15:53:47:098,41.136,0.033,-0.051,-0.009,-7.126,-40.694,-9.927
15:53:47:15,41.188,0.012,0.009,0.029,-7.149,-40.842,-9.998
15:53:47:151,41.189,-0.013,-0.056,-0.003,-7.161,-40.957,-9.830
15:53:47:223,41.261,-0.023,-0.004,-0.007,-7.000,-41.442,-10.120
15:53:47:248,41.286,-0.029,0.044,0.004,-6.940,-41.599,-10.117
15:53:47:3,41.338,-0.047,0.032,-0.004,-6.903,-41.631,-10.076
15:53:47:301,41.339,-0.020,0.049,-0.012,-6.892,-41.662,-10.133
15:53:47:598,41.636,0.020,-0.066,0.002,-7.325,-41.303,-9.820
15:53:47:61,41.648,0.023,-0.037,0.000,-7.321,-41.490,-10.128
15:53:47:91,41.948,0.073,-0.018,0.029,-7.229,-41.424,-9.464
15:53:47:924,41.962,0.026,-0.113,0.003,-7.657,-41.370,-9.260
15:53:47:948,41.985,0.031,-0.095,-0.022,-7.951,-41.397,-9.064
15:53:48:06,42.098,0.004,0.018,0.026,-8.028,-41.593,-9.599
15:53:48:073,42.111,-0.010,-0.061,-0.013,-7.909,-41.589,-9.499
15:53:48:151,42.189,-0.021,0.028,0.016,-7.776,-41.681,-9.630
15:53:48:173,42.211,0.001,-0.017,0.009,-7.713,-41.649,-9.579
15:53:48:226,42.264,-0.011,0.090,0.063,-7.723,-41.741,-9.816
15:53:48:226,42.264,0.004,0.001,0.008,-7.690,-41.742,-9.790
15:53:48:236,42.273,0.002,-0.015,-0.002,-7.727,-41.795,-9.973
15:53:48:3,42.338,0.003,0.046,0.075,-7.772,-41.860,-10.244
15:53:48:301,42.339,-0.039,0.006,-0.018,-7.756,-41.831,-9.961
15:53:48:31,42.348,-0.015,-0.027,-0.026,-7.886,-41.884,-9.947
15:53:48:376,42.414,0.019,-0.002,0.040,-7.998,-41.928,-10.270
15:53:48:376,42.414,-0.004,0.002,0.023,-7.917,-41.836,-10.251
15:53:48:386,42.424,0.005,-0.045,-0.023,-7.884,-41.851,-10.095
15:53:48:411,42.449,0.017,-0.002,0.015,-7.962,-41.939,-10.436
15:53:48:448,42.486,-0.005,-0.015,0.033,-7.906,-41.898,-10.459
15:53:48:461,42.499,-0.018,-0.034,-0.020,-7.858,-41.865,-10.103
15:53:48:523,42.561,-0.022,-0.020,0.016,-7.799,-41.914,-10.384
15:53:48:586,42.624,-0.005,-0.021,0.014,-7.745,-41.856,-10.162
15:53:48:602,42.640,-0.006,0.049,0.011,-7.765,-41.947,-10.312
15:53:48:602,42.640,-0.004,-0.017,0.026,-7.736,-41.946,-10.407
15:53:48:677,42.715,-0.004,0.008,0.011,-7.741,-41.913,-10.246
15:53:48:677,42.715,-0.005,0.014,0.008,-7.811,-42.005,-10.369
15:53:48:685,42.723,-0.013,0.000,0.005,-7.842,-42.087,-10.545
15:53:48:766,42.804,-0.027,-0.010,-0.010,-7.824,-42.099,-10.445
15:53:48:767,42.805,-0.012,0.012,-0.021,-7.832,-42.150,-10.486
15:53:48:767,42.805,-0.008,0.003,0.002,-7.817,-42.127,-10.546
15:53:48:774,42.812,0.004,-0.002,0.006,-7.802,-42.091,-10.538
15:53:48:839,42.876,0.009,-0.008,0.013,-7.829,-42.107,-10.687
15:53:48:839,42.876,-0.005,0.016,0.030,-7.790,-42.072,-10.696
15:53:48:874,42.912,-0.005,0.008,0.013,-7.746,-42.048,-10.599
15:53:48:913,42.951,0.018,0.026,0.027,-7.720,-42.075,-10.746
15:53:48:913,42.951,-0.019,0.002,0.016,-7.746,-42.064,-10.774
15:53:48:989,43.027,-0.007,0.040,-0.005,-7.845,-42.174,-10.687
15:53:48:989,43.027,-0.012,0.018,-0.006,-7.852,-42.167,-10.654
15:53:49:025,43.063,-0.012,-0.003,0.003,-7.973,-42.152,-10.654
15:53:49:076,43.114,0.000,0.011,0.016,-8.067,-42.175,-10.686
15:53:49:076,43.114,-0.007,-0.016,-0.001,-8.112,-42.132,-10.518
15:53:49:154,43.192,-0.008,-0.022,0.006,-8.144,-42.124,-10.506
15:53:49:155,43.193,-0.004,-0.014,0.011,-8.247,-42.177,-10.748
15:53:49:155,43.193,-0.013,-0.037,-0.025,-8.319,-42.155,-10.583
15:53:49:161,43.199,0.000,-0.055,-0.012,-8.366,-42.161,-10.565
15:53:49:226,43.264,0.020,-0.033,0.009,-8.385,-42.212,-11.023
15:53:49:226,43.264,0.000,0.001,0.001,-8.317,-42.233,-11.179
15:53:49:261,43.299,-0.004,0.008,0.020,-8.173,-42.212,-11.012
15:53:49:3,43.338,0.005,0.038,0.012,-8.154,-42.182,-11.013
15:53:49:301,43.339,-0.010,0.050,0.054,-8.147,-42.172,-11.123
15:53:49:377,43.415,-0.012,0.090,0.047,-8.209,-42.092,-11.094
15:53:49:41,43.448,-0.022,0.035,-0.005,-8.250,-42.012,-10.928
15:53:49:423,43.461,-0.017,0.015,-0.004,-8.520,-41.965,-10.659
15:53:49:488,43.526,-0.002,0.004,0.029,-8.858,-41.943,-10.899
15:53:49:489,43.527,-0.003,-0.010,0.020,-8.982,-41.872,-10.924
15:53:49:498,43.536,0.013,-0.062,-0.007,-9.180,-41.835,-10.789
15:53:49:536,43.573,0.023,-0.048,0.009,-9.328,-41.837,-10.848
15:53:49:71,43.748,-0.040,0.078,0.028,-9.205,-42.205,-11.163
15:53:49:775,43.813,-0.042,0.070,0.010,-9.178,-42.208,-10.974
15:53:49:801,43.839,-0.032,0.077,0.015,-9.242,-42.276,-11.031
15:53:49:801,43.839,-0.013,0.033,0.024,-9.282,-42.275,-11.000
15:53:49:81,43.848,-0.006,0.009,0.017,-9.427,-42.217,-10.732
15:53:49:848,43.885,0.025,-0.054,0.008,-9.576,-42.201,-10.675
15:53:49:897,43.935,0.024,-0.039,0.015,-9.933,-42.336,-10.925
15:53:49:96,43.998,0.036,-0.072,-0.019,-10.064,-42.511,-10.735
15:53:49:975,44.013,-0.007,-0.020,-0.007,-10.100,-42.574,-10.833
15:53:50:011,44.049,-0.002,-0.028,-0.003,-9.985,-42.595,-10.546
15:53:50:023,44.061,-0.003,-0.018,-0.030,-9.863,-42.606,-10.285
15:53:50:098,44.136,-0.011,0.041,0.020,-9.535,-42.534,-9.762
15:53:50:149,44.186,0.001,0.058,0.040,-9.524,-42.557,-9.765
15:53:50:197,44.235,0.001,0.018,0.031,-9.635,-42.655,-9.502
15:53:50:223,44.261,0.012,0.004,0.029,-9.732,-42.707,-9.569
15:53:50:261,44.299,0.023,-0.028,0.008,-9.879,-42.807,-9.407
15:53:50:286,44.324,-0.007,-0.024,-0.018,-10.004,-42.902,-9.246
15:53:50:312,44.350,0.014,-0.010,0.010,-10.121,-43.035,-9.338
15:53:50:335,44.373,0.026,-0.031,0.001,-10.091,-43.081,-9.379
15:53:50:36,44.398,0.017,-0.039,-0.013,-10.116,-43.138,-9.281
15:53:50:385,44.423,-0.002,-0.004,-0.006,-10.200,-43.265,-9.264
15:53:50:438,44.476,-0.013,-0.015,0.013,-10.209,-43.338,-9.318
15:53:50:439,44.477,-0.012,-0.014,-0.004,-10.162,-43.432,-9.308
15:53:50:511,44.549,-0.021,-0.001,-0.010,-10.103,-43.634,-9.258
15:53:50:548,44.586,-0.016,-0.029,-0.004,-10.097,-43.660,-9.221
15:53:50:56,44.598,-0.009,-0.003,0.021,-10.082,-43.700,-9.348
15:53:50:686,44.724,0.006,-0.002,0.026,-9.896,-43.652,-9.117
15:53:50:697,44.735,0.004,0.021,0.023,-9.800,-43.661,-8.862
15:53:50:723,44.761,-0.013,0.052,0.044,-9.755,-43.754,-8.998
15:53:50:76,44.798,-0.009,0.002,0.000,-9.703,-43.857,-9.129
15:53:50:847,44.885,0.007,-0.023,-0.031,-9.901,-43.990,-9.212
15:53:50:885,44.923,-0.007,0.003,-0.024,-10.013,-44.002,-9.321
15:53:50:964,45.002,0.017,-0.029,0.011,-9.981,-43.889,-9.486
15:53:50:964,45.002,0.026,-0.016,-0.031,-10.063,-43.850,-9.525
15:53:50:985,45.023,0.005,0.011,0.042,-10.107,-43.862,-9.707
15:53:51:01,45.048,0.001,-0.043,-0.005,-10.079,-43.760,-9.809
15:53:51:035,45.073,0.013,-0.008,0.002,-10.156,-43.730,-9.988
15:53:51:074,45.112,0.000,-0.031,0.045,-10.281,-43.686,-10.312
15:53:51:085,45.123,0.045,-0.010,0.055,-10.179,-43.506,-10.239
15:53:51:11,45.148,0.041,0.001,0.035,-10.083,-43.503,-10.369
15:53:51:147,45.185,0.007,0.038,0.053,-9.978,-43.648,-10.659
15:53:51:16,45.198,-0.035,0.047,0.009,-9.887,-43.761,-10.596
15:53:51:211,45.249,-0.033,0.037,-0.006,-9.800,-43.916,-10.547
15:53:51:223,45.261,-0.030,0.047,-0.023,-9.799,-44.000,-10.674
15:53:51:311,45.348,0.017,-0.001,0.011,-9.800,-43.875,-10.440
15:53:51:336,45.373,0.007,0.009,0.027,-9.858,-43.799,-10.521
15:53:51:347,45.385,0.018,-0.017,0.022,-9.875,-43.730,-10.356
15:53:51:386,45.424,0.023,-0.030,0.012,-9.904,-43.714,-10.322
15:53:51:411,45.449,0.037,-0.027,0.029,-9.978,-43.693,-10.509
15:53:51:422,45.460,0.015,-0.037,0.009,-10.011,-43.675,-10.536
15:53:51:461,45.499,0.019,-0.041,0.006,-10.004,-43.674,-10.384
15:53:51:473,45.511,0.027,-0.027,0.024,-9.973,-43.706,-10.410
15:53:51:498,45.536,0.022,-0.049,0.031,-9.898,-43.733,-10.578
15:53:51:535,45.573,-0.012,0.016,0.008,-9.770,-43.820,-10.525
15:53:51:688,45.726,-0.032,0.030,0.013,-9.197,-43.987,-9.788
15:53:51:688,45.726,-0.018,0.048,0.024,-9.158,-43.963,-9.929
15:53:51:71,45.748,-0.002,0.064,0.051,-9.166,-43.918,-9.889
15:53:51:735,45.773,-0.008,0.030,0.012,-9.226,-43.884,-9.551
15:53:51:785,45.823,0.012,-0.008,0.017,-9.515,-43.887,-9.665
15:53:51:81,45.848,0.008,-0.016,0.016,-9.537,-43.888,-9.626
15:53:51:848,45.886,0.006,-0.039,-0.011,-9.610,-43.891,-9.481
15:53:51:86,45.898,0.013,-0.049,-0.002,-9.687,-43.919,-9.595
15:53:51:886,45.924,0.014,-0.017,0.001,-9.658,-43.912,-9.599
15:53:51:963,46.001,0.000,0.005,0.007,-9.491,-43.833,-9.401
15:53:51:973,46.011,0.008,0.022,0.024,-9.372,-43.837,-9.548
15:53:51:998,46.036,0.000,0.001,-0.006,-9.306,-43.802,-9.391
15:53:52:035,46.073,-0.036,0.016,-0.005,-9.243,-43.739,-9.196
15:53:52:047,46.085,-0.019,0.065,0.034,-9.134,-43.675,-9.173
15:53:52:11,46.148,0.009,0.044,0.024,-9.007,-43.434,-8.928
15:53:52:124,46.162,0.015,-0.004,0.042,-9.152,-43.316,-8.868
15:53:52:161,46.199,0.010,-0.002,0.032,-9.309,-43.287,-8.869
15:53:52:173,46.211,0.014,-0.013,-0.005,-9.401,-43.320,-8.877
15:53:52:235,46.273,0.015,-0.018,0.027,-9.561,-43.313,-9.053
15:53:52:26,46.298,0.028,-0.027,0.008,-9.565,-43.288,-9.052
15:53:52:272,46.310,0.018,-0.029,0.014,-9.633,-43.291,-9.101
15:53:52:41,46.448,0.011,0.033,0.042,-9.371,-43.233,-9.147
15:53:52:435,46.473,0.006,0.006,0.030,-9.415,-43.229,-9.160
15:53:52:46,46.498,0.015,0.022,0.010,-9.487,-43.255,-9.038
15:53:52:498,46.536,0.015,0.001,0.024,-9.471,-43.256,-9.037
15:53:52:538,46.576,0.021,-0.021,0.021,-9.472,-43.291,-9.258
15:53:52:539,46.577,0.007,0.003,-0.003,-9.531,-43.408,-9.274
15:53:52:677,46.715,-0.001,-0.008,0.003,-9.506,-43.690,-9.317
15:53:52:677,46.715,-0.009,-0.004,0.011,-9.438,-43.719,-9.242
15:53:52:698,46.736,-0.023,0.006,-0.008,-9.372,-43.780,-9.181
15:53:52:749,46.787,-0.002,0.005,0.001,-9.327,-43.824,-9.259
15:53:52:762,46.800,-0.007,0.007,0.009,-9.290,-43.820,-9.228
15:53:52:823,46.861,-0.009,0.022,0.004,-9.176,-43.816,-9.058
15:53:52:838,46.876,-0.003,-0.010,0.016,-9.150,-43.824,-9.067
15:53:52:839,46.877,-0.003,0.020,0.016,-9.162,-43.828,-9.163
15:53:52:848,46.886,-0.015,0.015,0.000,-9.097,-43.839,-9.012
15:53:52:913,46.951,-0.015,0.005,-0.016,-9.070,-43.842,-8.968
15:53:52:914,46.952,-0.012,-0.004,-0.001,-9.071,-43.787,-8.986
15:53:52:925,46.963,-0.020,0.017,0.020,-9.028,-43.719,-8.852
15:53:52:988,47.025,0.017,-0.012,0.027,-8.926,-43.651,-8.742
15:53:52:989,47.026,0.027,-0.011,0.023,-8.918,-43.655,-8.861
15:53:53:047,47.085,0.013,-0.027,0.011,-8.935,-43.684,-8.876
15:53:53:06,47.098,0.000,-0.004,0.001,-8.861,-43.743,-8.972
15:53:53:085,47.123,0.003,0.023,0.026,-8.707,-43.790,-9.132
15:53:53:138,47.175,-0.012,0.028,0.020,-8.622,-43.783,-9.028
15:53:53:139,47.176,-0.013,0.058,0.008,-8.600,-43.826,-8.950
15:53:53:377,47.415,0.017,-0.011,0.033,-8.715,-43.207,-7.851
15:53:53:377,47.415,-0.003,-0.010,0.010,-8.723,-43.190,-7.926
15:53:53:398,47.436,0.011,-0.025,-0.003,-8.710,-43.164,-7.832
15:53:53:452,47.489,0.018,-0.003,0.040,-8.745,-43.166,-7.895
15:53:53:452,47.489,0.017,-0.004,0.027,-8.748,-43.163,-8.009
15:53:53:472,47.510,0.022,0.013,0.014,-8.732,-43.232,-8.150
15:53:53:527,47.565,0.012,0.004,0.033,-8.720,-43.267,-8.237
15:53:53:527,47.565,0.007,0.015,0.022,-8.711,-43.313,-8.223
15:53:53:547,47.585,0.005,0.004,0.018,-8.694,-43.373,-8.242
15:53:53:585,47.623,-0.004,-0.007,0.003,-8.659,-43.421,-8.254
15:53:53:598,47.636,-0.008,-0.020,-0.008,-8.645,-43.444,-8.059
15:53:53:623,47.661,-0.012,0.022,0.011,-8.600,-43.445,-7.901
15:53:53:689,47.727,0.007,-0.020,0.014,-8.538,-43.420,-7.834
15:53:53:689,47.727,0.017,-0.007,0.005,-8.547,-43.452,-7.936
15:53:53:751,47.788,-0.010,0.008,0.001,-8.513,-43.492,-7.811
15:53:53:752,47.789,-0.011,0.012,0.016,-8.477,-43.505,-7.725
15:53:53:761,47.798,0.001,0.000,0.012,-8.461,-43.565,-7.905
15:53:53:86,47.898,-0.012,-0.007,-0.008,-8.480,-43.614,-7.780
15:53:53:899,47.937,-0.014,-0.030,-0.022,-8.388,-43.509,-7.554
15:53:53:91,47.948,-0.008,0.039,0.035,-8.344,-43.452,-7.643
15:53:53:935,47.973,0.004,0.032,0.027,-8.277,-43.402,-7.657
15:53:53:973,48.011,0.009,-0.026,0.029,-8.204,-43.357,-7.657
15:53:53:985,48.023,0.013,0.027,0.039,-8.189,-43.339,-7.732
15:53:54:051,48.088,0.007,0.003,0.021,-8.124,-43.322,-7.691
15:53:54:052,48.089,-0.001,0.024,0.031,-8.079,-43.375,-7.698
15:53:54:122,48.160,-0.031,0.038,0.000,-8.097,-43.489,-7.893
15:53:54:214,48.252,-0.012,0.019,-0.003,-8.231,-43.464,-7.802
15:53:54:226,48.264,-0.018,0.005,0.002,-8.355,-43.423,-7.923
15:53:54:304,48.342,0.007,-0.043,-0.016,-8.433,-43.386,-8.039
15:53:54:304,48.342,0.008,-0.022,-0.016,-8.493,-43.277,-8.204
15:53:54:305,48.343,0.030,-0.037,0.023,-8.441,-43.157,-8.184
15:53:54:463,48.500,-0.013,0.023,0.001,-8.098,-42.967,-8.212
15:53:54:513,48.551,-0.019,0.098,0.044,-8.110,-42.960,-8.170
15:53:54:513,48.551,-0.035,0.046,0.021,-8.079,-42.930,-8.176
15:53:54:535,48.573,0.004,0.041,0.027,-8.193,-42.953,-8.420
15:53:54:603,48.641,0.017,-0.028,0.038,-8.523,-42.962,-8.581
15:53:54:61,48.648,0.030,-0.045,0.002,-8.630,-43.023,-8.690
15:53:54:676,48.714,0.031,-0.035,0.009,-8.805,-43.244,-9.339
15:53:54:676,48.714,-0.002,-0.041,-0.016,-8.970,-43.370,-9.560
15:53:54:685,48.723,-0.022,-0.036,-0.015,-9.035,-43.422,-9.501
15:53:54:751,48.789,-0.012,-0.023,-0.022,-9.015,-43.501,-9.644
15:53:54:752,48.790,-0.013,-0.021,-0.017,-8.990,-43.541,-9.837
15:53:54:826,48.864,-0.023,0.021,0.011,-8.889,-43.516,-9.824
15:53:54:826,48.864,-0.002,0.000,-0.008,-8.885,-43.532,-9.986
15:53:54:849,48.887,-0.003,0.049,0.042,-8.864,-43.589,-10.355
15:53:54:915,48.952,-0.007,0.019,0.017,-8.815,-43.571,-10.251
15:53:54:915,48.952,-0.009,0.003,0.009,-8.860,-43.610,-10.186
15:53:54:923,48.960,-0.008,0.038,0.034,-8.937,-43.686,-10.476
15:53:55:085,49.123,-0.021,0.033,0.000,-9.169,-43.765,-10.627
15:53:55:151,49.189,-0.011,0.001,0.038,-9.140,-43.626,-10.706
15:53:55:151,49.189,-0.036,-0.020,-0.032,-9.079,-43.448,-10.098
15:53:55:161,49.199,-0.013,0.024,0.005,-9.038,-43.291,-9.752
15:53:55:198,49.236,0.017,0.056,0.068,-8.967,-43.161,-9.871
15:53:55:238,49.275,0.034,0.030,0.050,-8.906,-42.957,-9.734
15:53:55:239,49.276,0.042,-0.016,0.032,-9.044,-42.916,-9.621
15:53:55:423,49.461,-0.006,0.049,0.015,-9.440,-43.667,-10.022
15:53:55:523,49.560,0.022,-0.062,-0.004,-9.957,-43.814,-10.566
15:53:55:549,49.586,-0.003,-0.070,-0.036,-10.083,-43.529,-9.811
15:53:55:572,49.610,0.002,-0.076,-0.026,-10.116,-43.449,-9.579
15:53:55:597,49.635,0.038,-0.033,0.028,-10.031,-43.310,-9.875
15:53:55:663,49.701,0.019,-0.030,0.029,-9.933,-43.171,-9.867
15:53:55:663,49.701,0.022,-0.002,0.016,-9.838,-43.083,-9.709
15:53:55:726,49.763,0.014,-0.024,-0.001,-9.766,-43.087,-9.737
15:53:55:727,49.764,0.005,-0.014,-0.011,-9.741,-43.095,-9.746
15:53:55:736,49.773,0.008,0.014,0.017,-9.681,-43.141,-9.929
15:53:55:835,49.873,0.012,-0.011,0.013,-9.160,-42.931,-9.620
15:53:55:885,49.923,-0.006,0.043,0.064,-8.955,-43.067,-9.764
15:53:56:04,50.078,0.016,-0.001,0.033,-8.997,-43.159,-9.713
15:53:56:101,50.139,0.013,-0.023,0.004,-8.993,-43.148,-9.776
15:53:56:102,50.140,0.016,-0.040,-0.003,-8.959,-43.175,-9.673
15:53:56:201,50.239,-0.017,-0.014,0.009,-8.836,-43.426,-9.903
15:53:56:298,50.336,0.002,0.064,0.051,-8.472,-43.395,-10.010
15:53:56:323,50.361,0.000,0.027,0.048,-8.486,-43.334,-9.830
15:53:56:348,50.386,0.008,0.029,0.011,-8.585,-43.356,-9.682
15:53:56:373,50.411,0.000,0.032,0.038,-8.640,-43.436,-9.857
15:53:56:451,50.488,0.008,-0.004,0.012,-8.630,-43.504,-9.920
15:53:56:451,50.488,0.012,-0.019,0.009,-8.770,-43.577,-9.800
15:53:56:461,50.498,0.011,-0.017,0.021,-8.887,-43.665,-9.903
15:53:56:51,50.548,0.022,-0.100,-0.010,-8.925,-43.806,-9.759
15:53:56:589,50.627,-0.008,-0.015,0.019,-8.845,-44.359,-10.154
15:53:56:639,50.677,-0.017,0.014,-0.034,-8.633,-44.614,-10.215
15:53:56:639,50.677,-0.038,0.061,0.003,-8.557,-44.781,-10.426
15:53:56:661,50.699,-0.052,0.030,-0.023,-8.433,-44.877,-10.264
15:53:56:738,50.776,-0.021,0.052,0.012,-8.301,-44.910,-10.170
15:53:56:739,50.777,-0.022,0.043,0.014,-8.295,-44.861,-10.321
15:53:56:822,50.860,0.046,-0.055,0.028,-8.600,-44.716,-10.402
15:53:56:923,50.961,0.006,-0.004,-0.006,-8.562,-45.093,-10.707
15:53:56:976,51.014,-0.017,0.026,0.005,-8.480,-45.217,-10.798
15:53:56:976,51.014,-0.025,0.048,0.014,-8.425,-45.303,-10.857
15:53:56:998,51.036,-0.032,0.031,-0.033,-8.397,-45.337,-10.735
15:53:57:052,51.089,-0.011,0.025,0.017,-8.353,-45.257,-10.981
15:53:57:198,51.236,0.035,-0.011,0.029,-8.444,-44.632,-10.693
15:53:57:223,51.261,0.037,-0.009,0.061,-8.446,-44.567,-10.803
15:53:57:248,51.286,0.030,0.032,0.100,-8.418,-44.487,-10.763
15:53:57:273,51.311,0.051,-0.028,0.065,-8.396,-44.489,-10.525
15:53:57:285,51.323,0.025,-0.050,0.047,-8.537,-44.676,-10.344
15:53:57:348,51.386,-0.018,-0.063,-0.013,-8.704,-45.083,-10.261
15:53:57:36,51.398,-0.035,-0.034,-0.034,-8.757,-45.406,-10.374
15:53:57:398,51.436,-0.048,0.007,-0.007,-8.827,-45.591,-10.625
15:53:57:448,51.486,-0.031,-0.004,-0.033,-8.851,-45.617,-10.319
15:53:57:51,51.548,-0.004,0.031,0.041,-8.776,-45.460,-10.317
15:53:57:522,51.560,0.025,0.018,0.046,-8.765,-45.407,-10.324
15:53:57:586,51.624,0.070,0.010,0.082,-8.776,-45.470,-10.915
15:53:57:597,51.635,0.044,0.027,0.058,-8.749,-45.622,-11.014
15:53:57:636,51.674,-0.016,0.013,0.015,-8.733,-45.847,-10.951
15:53:57:648,51.686,-0.018,0.031,-0.007,-8.746,-45.985,-10.972
15:53:57:673,51.711,-0.030,0.045,0.011,-8.731,-46.086,-11.161
15:53:57:748,51.786,-0.017,0.012,0.011,-8.823,-45.992,-10.838
15:53:57:787,51.824,-0.033,0.027,0.017,-8.867,-45.881,-10.862
15:53:57:838,51.876,-0.022,0.012,0.015,-8.949,-45.761,-10.607
15:53:57:838,51.876,0.002,-0.008,-0.007,-9.010,-45.645,-10.570
15:53:57:86,51.898,0.004,0.042,0.061,-9.018,-45.382,-10.608
15:53:57:91,51.948,0.001,-0.015,0.025,-9.107,-45.113,-9.853
15:53:57:993,52.031,0.005,-0.026,0.022,-9.575,-45.101,-10.133
15:53:57:993,52.031,-0.012,-0.031,-0.038,-9.543,-45.050,-9.908
15:53:58:038,52.076,-0.023,-0.006,-0.012,-9.571,-45.058,-10.051
15:53:58:039,52.077,-0.014,0.046,0.009,-9.612,-44.995,-10.410
15:53:58:073,52.110,-0.015,0.001,-0.014,-9.642,-44.794,-10.244
15:53:58:11,52.148,-0.027,-0.019,-0.009,-9.706,-44.655,-10.185
15:53:58:122,52.160,0.009,-0.007,0.010,-9.753,-44.401,-10.325
15:53:58:276,52.314,0.034,-0.014,0.042,-9.853,-43.641,-10.777
15:53:58:276,52.314,0.027,-0.032,0.018,-9.860,-43.617,-10.783
15:53:58:298,52.336,0.040,-0.031,0.012,-9.868,-43.640,-10.949
15:53:58:363,52.400,0.017,-0.009,0.026,-9.873,-43.693,-11.131
15:53:58:364,52.401,0.003,-0.001,-0.010,-9.851,-43.767,-11.027
15:53:58:376,52.413,-0.023,-0.026,-0.034,-9.866,-43.851,-10.848
15:53:58:438,52.476,-0.023,0.002,-0.009,-9.830,-43.933,-10.967
15:53:58:439,52.477,-0.048,0.037,-0.003,-9.677,-43.980,-11.142
15:53:58:567,52.605,0.024,-0.013,0.006,-9.517,-43.419,-10.728
15:53:58:586,52.624,0.030,0.026,0.055,-9.472,-43.337,-10.772
15:53:58:685,52.723,0.003,0.003,0.024,-9.426,-43.192,-10.642
15:53:58:735,52.773,-0.021,0.009,-0.005,-9.519,-43.261,-10.503
15:53:58:948,52.986,0.021,-0.025,0.002,-9.455,-43.439,-11.307
15:53:58:973,53.011,0.004,-0.042,-0.010,-9.451,-43.575,-11.342
15:53:59:,53.037,-0.017,0.015,0.015,-9.280,-43.646,-11.353
15:53:59:022,53.060,0.000,0.020,0.035,-9.127,-43.676,-11.451
15:53:59:3,53.338,-0.007,-0.007,-0.006,-9.271,-45.037,-12.313
15:53:59:301,53.339,0.010,-0.049,-0.012,-9.351,-45.086,-12.302
15:53:59:31,53.348,0.012,-0.059,0.000,-9.477,-45.158,-12.364
15:53:59:375,53.413,0.017,-0.042,0.026,-9.494,-45.147,-12.288
15:53:59:376,53.414,0.040,-0.040,0.024,-9.392,-45.129,-12.112
15:53:59:385,53.423,0.046,-0.016,0.060,-9.326,-45.197,-12.214
15:53:59:411,53.449,0.020,0.006,0.040,-9.225,-45.364,-12.313
15:53:59:448,53.486,0.000,0.024,0.022,-9.074,-45.551,-12.120
15:53:59:46,53.498,-0.011,0.056,0.034,-8.955,-45.706,-12.086
15:53:59:523,53.561,-0.025,0.034,-0.016,-8.751,-46.085,-11.956
15:53:59:548,53.586,-0.023,0.043,-0.002,-8.823,-46.311,-11.763
15:53:59:602,53.639,-0.010,0.010,0.017,-8.836,-46.458,-11.635
15:53:59:602,53.639,-0.003,-0.001,0.008,-8.844,-46.559,-11.590
15:53:59:622,53.660,0.003,-0.011,-0.002,-8.942,-46.763,-11.557
15:53:59:673,53.711,-0.022,-0.007,0.012,-9.012,-46.901,-11.468
15:53:59:685,53.723,-0.006,-0.017,0.009,-8.980,-47.042,-11.250
15:53:59:826,53.864,-0.024,-0.003,-0.001,-9.132,-47.323,-10.892
15:53:59:827,53.865,-0.013,-0.020,-0.001,-9.126,-47.204,-10.687
15:53:59:898,53.936,0.043,-0.065,0.043,-9.100,-47.090,-10.452
15:53:59:91,53.948,0.053,-0.065,0.052,-9.050,-47.097,-10.428
15:53:59:935,53.973,0.019,-0.085,0.003,-8.936,-47.213,-10.128
15:53:59:96,53.998,-0.015,-0.062,-0.040,-8.850,-47.353,-10.012
15:54:00:01,54.048,-0.047,0.047,-0.016,-8.266,-47.407,-10.031
15:54:00:064,54.102,-0.041,0.118,0.020,-7.983,-47.335,-10.110
15:54:00:064,54.102,-0.054,0.130,0.029,-7.712,-47.154,-9.750
15:54:00:085,54.123,-0.070,0.176,0.018,-7.681,-47.036,-9.549
15:54:00:139,54.177,-0.037,0.163,0.053,-7.748,-46.911,-9.804
15:54:00:139,54.177,-0.009,0.013,0.047,-8.010,-46.764,-9.820
15:54:00:174,54.211,-0.001,-0.019,-0.009,-8.291,-46.682,-9.578
15:54:00:186,54.223,-0.008,0.045,0.006,-8.645,-46.631,-9.388
15:54:00:305,54.343,0.029,-0.021,0.026,-9.131,-46.314,-9.411
15:54:00:305,54.343,0.004,-0.059,0.009,-9.155,-46.236,-9.217
15:54:00:323,54.361,0.018,-0.076,-0.009,-9.230,-46.163,-9.065
15:54:00:376,54.413,0.042,-0.058,0.006,-9.277,-46.148,-9.169
15:54:00:376,54.413,0.008,-0.047,0.018,-9.176,-46.096,-9.215
15:54:00:45,54.488,0.013,0.019,0.016,-8.952,-46.035,-9.265
15:54:00:451,54.489,0.006,0.014,0.035,-8.744,-45.976,-9.480
15:54:00:485,54.523,0.003,-0.029,0.030,-8.664,-45.966,-9.445
15:54:00:523,54.561,0.009,0.008,0.001,-8.647,-46.032,-9.558
15:54:00:536,54.574,-0.011,-0.005,0.010,-8.577,-46.051,-9.750
15:54:00:587,54.624,0.003,-0.005,0.004,-8.414,-46.064,-9.897
15:54:00:613,54.651,-0.003,0.016,-0.017,-8.320,-46.068,-9.960
15:54:00:614,54.652,-0.026,0.035,-0.002,-8.228,-46.031,-10.054
15:54:00:764,54.802,-0.002,0.029,0.060,-8.223,-45.006,-10.447
15:54:00:786,54.824,0.022,-0.038,0.007,-8.380,-44.844,-10.395
15:54:00:851,54.889,0.012,-0.055,-0.031,-8.659,-44.700,-10.332
15:54:00:851,54.889,0.001,-0.061,0.032,-8.781,-44.623,-10.402
15:54:01:002,55.040,0.037,-0.012,0.029,-8.622,-43.945,-10.422
15:54:01:002,55.040,0.022,0.028,0.058,-8.527,-43.967,-10.583
15:54:01:023,55.061,0.027,0.015,0.042,-8.451,-44.005,-10.712
15:54:01:077,55.114,0.032,-0.003,0.026,-8.396,-44.043,-10.786
15:54:01:077,55.114,0.021,0.025,0.041,-8.301,-44.080,-10.839
15:54:01:167,55.205,-0.007,0.022,0.050,-8.224,-44.137,-10.892
15:54:01:167,55.205,0.012,0.057,0.058,-8.155,-44.324,-11.098
15:54:01:167,55.205,0.007,0.041,0.002,-8.132,-44.463,-11.127
15:54:01:224,55.262,-0.014,0.004,0.012,-8.203,-44.617,-11.001
15:54:01:239,55.277,0.174,-0.202,-0.184,-169.998,-176.601,136.212
15:54:01:298,55.336,-0.015,0.002,0.017,-8.595,-45.030,-10.912
15:54:01:31,55.348,-0.011,-0.027,0.010,-8.611,-45.095,-10.780
15:54:01:385,55.423,-0.029,-0.007,-0.004,-8.686,-45.309,-10.865
15:54:01:452,55.489,-0.008,0.027,-0.002,-8.639,-45.333,-10.891
15:54:01:461,55.498,-0.025,0.011,0.010,-8.610,-45.280,-10.960
15:54:01:56,55.598,0.003,-0.026,0.011,-8.688,-45.025,-11.067
15:54:01:626,55.664,-0.005,-0.012,0.009,-8.682,-44.988,-11.064
15:54:01:626,55.664,0.021,-0.005,0.037,-8.670,-44.981,-11.325
15:54:01:687,55.725,-0.004,-0.020,0.026,-8.651,-44.928,-11.382
15:54:01:701,55.739,0.006,-0.030,-0.003,-8.672,-44.928,-11.311
15:54:01:701,55.739,0.000,0.006,0.004,-8.670,-44.961,-11.497
15:54:01:723,55.761,-0.026,-0.062,-0.021,-8.612,-44.936,-11.699
15:54:01:938,55.976,0.012,0.038,0.050,-8.021,-44.310,-12.731
15:54:01:939,55.977,0.004,0.048,0.030,-8.006,-44.351,-12.752
15:54:02:011,56.049,0.003,-0.012,-0.008,-8.238,-44.545,-13.143
15:54:02:077,56.114,-0.016,-0.008,0.002,-8.368,-44.649,-13.205
15:54:02:086,56.123,-0.011,-0.051,-0.033,-8.487,-44.708,-13.490
15:54:02:151,56.189,-0.024,-0.005,-0.017,-8.566,-44.795,-13.877
15:54:02:151,56.189,-0.025,-0.022,0.005,-8.505,-44.813,-14.041
15:54:02:161,56.199,-0.036,-0.009,-0.018,-8.435,-44.795,-14.132
15:54:02:254,56.292,-0.006,0.035,0.016,-8.410,-44.781,-14.532
15:54:02:254,56.292,-0.010,0.013,0.004,-8.358,-44.681,-14.438
15:54:02:255,56.293,-0.006,0.025,0.010,-8.348,-44.614,-14.374
15:54:02:262,56.300,0.023,0.041,0.062,-8.309,-44.493,-14.500
15:54:02:326,56.363,0.015,0.047,0.034,-8.294,-44.412,-14.462
15:54:02:327,56.364,0.017,0.050,0.033,-8.385,-44.382,-14.364
15:54:02:639,56.677,-0.015,0.021,0.039,-8.423,-44.721,-14.380
15:54:02:639,56.677,0.002,0.002,0.008,-8.103,-44.610,-14.122
15:54:02:699,56.737,-0.003,0.043,0.026,-8.026,-44.624,-14.238
15:54:02:713,56.751,0.008,0.034,0.049,-7.962,-44.612,-14.341
15:54:02:714,56.752,-0.008,0.028,-0.002,-7.868,-44.526,-13.984
15:54:02:788,56.826,0.012,0.025,0.027,-7.874,-44.471,-13.982
15:54:02:789,56.827,0.012,-0.005,0.027,-7.853,-44.368,-13.868
15:54:02:867,56.905,-0.008,0.010,0.019,-7.949,-44.364,-13.589
15:54:02:867,56.905,0.001,0.008,0.019,-7.907,-44.344,-13.622
15:54:02:939,56.977,-0.007,0.002,0.008,-7.964,-44.386,-13.513
15:54:02:951,56.989,-0.002,-0.023,-0.004,-7.998,-44.350,-13.259
15:54:03:013,57.051,0.017,-0.024,0.011,-8.053,-44.343,-13.314
15:54:03:014,57.052,0.020,-0.013,0.033,-8.079,-44.377,-13.459
15:54:03:087,57.125,0.010,-0.053,-0.004,-8.077,-44.438,-13.133
15:54:03:102,57.139,0.013,-0.027,0.013,-8.061,-44.506,-13.278
15:54:03:102,57.139,-0.017,-0.029,-0.004,-7.910,-44.548,-13.244
15:54:03:178,57.216,-0.023,-0.028,-0.028,-7.817,-44.592,-13.095
15:54:03:179,57.217,0.017,-0.005,0.016,-7.697,-44.651,-13.391
15:54:03:179,57.217,-0.015,-0.002,0.002,-7.585,-44.666,-13.599
15:54:03:253,57.291,-0.027,0.034,0.015,-7.437,-44.754,-13.540
15:54:03:254,57.292,-0.037,0.066,0.050,-7.299,-44.829,-13.572
15:54:03:255,57.293,-0.030,0.027,0.021,-7.243,-44.826,-13.571
15:54:03:373,57.411,-0.014,0.028,-0.005,-7.490,-44.871,-13.633
15:54:03:398,57.435,0.009,0.041,0.026,-7.639,-44.791,-13.575
15:54:03:411,57.448,0.048,-0.052,0.029,-7.741,-44.591,-13.404
15:54:03:436,57.473,0.040,-0.057,0.027,-7.914,-44.561,-13.366
15:54:03:489,57.527,0.034,-0.059,0.021,-7.993,-44.559,-13.047
15:54:03:524,57.562,0.022,-0.049,0.008,-8.139,-44.680,-12.971
15:54:03:564,57.602,0.033,-0.031,0.004,-8.247,-44.851,-13.148
15:54:03:564,57.602,0.015,-0.050,-0.013,-8.241,-44.916,-13.048
15:54:03:598,57.636,0.000,-0.043,-0.001,-8.214,-45.014,-12.878
15:54:03:635,57.673,0.010,-0.030,-0.017,-8.158,-45.063,-12.860
15:54:03:65,57.688,0.011,-0.004,0.005,-8.006,-45.096,-12.674
15:54:03:673,57.711,-0.006,0.018,0.007,-7.858,-45.174,-12.484
15:54:03:727,57.764,-0.023,0.033,-0.012,-7.713,-45.292,-12.424
15:54:03:788,57.826,-0.029,-0.016,-0.016,-7.715,-45.310,-12.338
15:54:03:797,57.835,-0.002,-0.010,0.022,-7.702,-45.304,-12.630
15:54:03:863,57.901,0.023,0.038,0.049,-7.650,-45.310,-12.683
15:54:03:864,57.902,0.002,0.018,0.019,-7.624,-45.304,-12.530
15:54:04:102,58.140,-0.028,0.007,0.003,-7.536,-45.560,-11.932
15:54:04:11,58.148,-0.007,0.036,0.013,-7.475,-45.401,-11.713
15:54:04:164,58.202,-0.006,0.001,0.010,-7.466,-45.296,-11.556
15:54:04:164,58.202,-0.001,0.008,0.022,-7.521,-45.201,-11.567
15:54:04:241,58.279,0.009,0.012,0.012,-7.529,-45.133,-11.534
15:54:04:242,58.280,0.004,0.002,-0.014,-7.540,-45.051,-11.330
15:54:04:242,58.280,-0.006,-0.006,-0.006,-7.606,-44.963,-11.328
15:54:04:391,58.428,0.005,-0.023,0.009,-7.754,-44.613,-11.106
15:54:04:397,58.435,-0.007,-0.022,0.007,-7.818,-44.630,-11.173
15:54:04:463,58.501,-0.003,-0.035,-0.001,-7.828,-44.615,-11.115
15:54:04:473,58.511,-0.005,-0.015,-0.011,-7.868,-44.550,-11.170
15:54:04:498,58.536,0.007,0.027,0.037,-7.757,-44.415,-11.048
15:54:04:552,58.590,0.001,-0.035,-0.001,-7.713,-44.336,-10.937
15:54:04:552,58.590,0.001,0.001,0.015,-7.837,-44.367,-11.203
15:54:04:613,58.651,0.007,-0.014,0.014,-7.888,-44.376,-11.313
15:54:04:614,58.652,0.004,-0.008,0.001,-7.792,-44.326,-11.184
15:54:04:636,58.674,-0.016,-0.041,0.014,-7.755,-44.359,-11.213
15:54:04:713,58.751,-0.011,0.027,0.005,-7.539,-44.425,-11.213
15:54:04:713,58.751,-0.023,0.003,0.015,-7.470,-44.411,-11.064
15:54:04:776,58.814,-0.016,0.035,0.012,-7.475,-44.488,-11.447
15:54:04:776,58.814,0.005,0.029,0.021,-7.478,-44.512,-11.653
15:54:04:786,58.824,-0.007,-0.039,0.011,-7.572,-44.530,-11.615
15:54:04:852,58.890,-0.021,0.010,-0.003,-7.686,-44.611,-11.722
15:54:04:852,58.890,-0.014,-0.007,0.016,-7.702,-44.653,-11.915
15:54:04:861,58.899,0.008,-0.021,0.000,-7.686,-44.649,-12.084
15:54:04:952,58.989,0.028,-0.009,0.026,-7.684,-44.614,-12.412
15:54:05:001,59.039,0.008,0.005,0.024,-7.666,-44.603,-12.597
15:54:05:076,59.114,0.027,0.003,0.016,-7.639,-44.588,-12.763
15:54:05:098,59.136,0.033,0.027,0.060,-7.519,-44.562,-12.510
15:54:05:151,59.189,0.023,-0.009,0.028,-7.339,-44.535,-11.903
15:54:05:151,59.189,0.005,0.024,0.008,-7.339,-44.614,-11.762
15:54:05:223,59.261,-0.011,0.012,0.028,-7.297,-44.868,-11.851
15:54:05:236,59.274,-0.028,0.001,0.009,-7.294,-45.023,-11.749
15:54:05:249,59.286,-0.022,0.022,0.006,-7.384,-45.203,-11.893
15:54:05:313,59.351,-0.016,0.007,0.006,-7.378,-45.260,-11.896
15:54:05:313,59.351,-0.026,-0.010,-0.002,-7.339,-45.342,-11.771
15:54:05:335,59.373,-0.024,-0.009,0.003,-7.351,-45.417,-11.811
15:54:05:389,59.427,-0.013,0.004,0.005,-7.354,-45.507,-11.924
15:54:05:389,59.427,-0.017,-0.020,-0.005,-7.363,-45.567,-11.810
15:54:05:41,59.448,-0.022,-0.008,-0.012,-7.374,-45.637,-11.797
15:54:05:475,59.513,-0.012,-0.003,0.001,-7.330,-45.699,-11.969
15:54:05:476,59.514,-0.006,-0.011,-0.009,-7.328,-45.691,-11.900
15:54:05:485,59.523,-0.008,-0.022,-0.002,-7.313,-45.684,-11.503
15:54:05:511,59.549,-0.002,0.008,-0.005,-7.211,-45.649,-11.243
15:54:05:548,59.586,0.001,0.000,0.001,-6.937,-45.554,-10.826
15:54:05:56,59.598,0.001,0.003,0.000,-6.805,-45.438,-10.110
15:54:05:61,59.648,0.009,-0.007,0.018,-6.841,-45.414,-9.787
15:54:05:623,59.661,0.007,0.013,0.034,-6.826,-45.435,-9.885
15:54:05:648,59.686,0.009,0.028,0.024,-6.738,-45.454,-9.960
15:54:05:686,59.724,0.006,0.038,0.018,-6.679,-45.477,-9.822
15:54:05:698,59.736,-0.003,0.031,0.019,-6.756,-45.577,-9.865
15:54:05:723,59.761,-0.024,0.074,0.028,-6.772,-45.637,-9.903
15:54:05:776,59.813,-0.014,0.019,0.012,-6.768,-45.649,-9.704
15:54:05:777,59.814,-0.014,0.010,0.008,-6.861,-45.652,-9.688
15:54:05:854,59.892,-0.008,-0.014,0.005,-7.220,-45.735,-9.759
15:54:05:855,59.893,0.000,-0.032,-0.008,-7.238,-45.757,-9.743
15:54:05:873,59.911,0.024,-0.051,0.005,-7.354,-45.806,-9.948
